acc_x (m/s^2), acc_y (m/s^2), angular_z (rad/s), stamp, 
0.016233503818511963, -0.005359232425689697, 6.329899769706948e-10, 1759503123514828972, 
-0.02547752857208252, 0.0073912739753723145, -7.893884069795196e-07, 1759503123552531723, 
-0.007582604885101318, 0.021779656410217285, 8.493552206905087e-10, 1759503123582567415, 
0.024729251861572266, -0.017720699310302734, 7.324136775821576e-10, 1759503123612572675, 
0.010189533233642578, -0.01607280969619751, -9.477291265234201e-07, 1759503123643996144, 
0.02094179391860962, -0.0015810132026672363, 6.789610450826682e-10, 1759503123675314569, 
-0.004112899303436279, -0.0158880352973938, -7.932007486601526e-07, 1759503123712838755, 
0.021245956420898438, 0.005752384662628174, 5.568081727253496e-10, 1759503123742801800, 
-0.00025588274002075195, 0.009344995021820068, 5.179553129580232e-10, 1759503123773630134, 
0.006920039653778076, 0.0074402689933776855, -9.807319212709172e-07, 1759503123804002969, 
0.010674595832824707, -0.0016483664512634277, 3.704740277858685e-10, 1759503123835547580, 
0.018154442310333252, -0.008753359317779541, 2.765477528698619e-10, 1759503123863727004, 
-0.00506281852722168, -0.005293011665344238, 1.9131343597504528e-10, 1759503123893627116, 
-0.021108031272888184, 0.0017158985137939453, 1.3104780357538278e-10, 1759503123923585955, 
-0.033302485942840576, 0.0072560906410217285, 5.932221588833233e-11, 1759503123953573834, 
-0.02921903133392334, 0.014083802700042725, -3.529309254000722e-11, 1759503123983861257, 
-0.0340002179145813, 0.017177164554595947, -4.130399730228282e-11, 1759503124013737977, 
0.023946642875671387, -0.03347212076187134, 9.74887852001969e-07, 1759503124044310864, 
0.02419990301132202, -0.026366353034973145, 1.4834112602165344e-10, 1759503124076580136, 
0.004706203937530518, 0.009667456150054932, 6.408589692340085e-11, 1759503124103632614, 
0.024769604206085205, -0.013696491718292236, 1.0169549360114457e-06, 1759503124132940129, 
0.00874185562133789, 0.000618278980255127, 9.688087094273837e-07, 1759503124163704589, 
0.006450295448303223, 0.0012629032135009766, 6.9587367499378246e-12, 1759503125124625632, 
-0.008314371109008789, -0.010938107967376709, -7.134981856150478e-07, 1759503125196480636, 
-0.0011756420135498047, 0.007114827632904053, 8.187416656939766e-11, 1759503125228545125, 
-0.0028786659240722656, 0.01985800266265869, 1.4000053617210514e-10, 1759503125264813680, 
-0.0028571486473083496, -0.021220386028289795, 1.102611148979462e-10, 1759503125294883146, 
-0.0009511113166809082, 0.009572923183441162, 1.2868292113487629e-10, 1759503125324875464, 
-0.0025588274002075195, 0.0024071335792541504, 9.031962464211133e-11, 1759503125356861897, 
-0.009468913078308105, -0.013092517852783203, -0.0002249779032778592, 1759503125388389363, 
0.013451039791107178, 0.001103520393371582, 0.0004112760999109445, 1759503125415200399, 
0.7976586818695068, 0.23467421531677246, 0.04429861454726133, 1759503125445101540, 
-0.6613919734954834, 0.434847891330719, 0.33692941259823406, 1759503125475176404, 
0.2739351987838745, 0.21196913719177246, 0.5764571745430827, 1759503125505202232, 
0.23936247825622559, -0.32742953300476074, 0.6058677712369854, 1759503125535356707, 
-0.5226312875747681, -0.04703819751739502, 0.5795864073205949, 1759503125565272833, 
0.3695923686027527, -0.15006941556930542, 0.5054698581795867, 1759503125596532554, 
-0.36965304613113403, 0.17876678705215454, 0.45930810850712733, 1759503125628218839, 
0.3430960178375244, -0.023424863815307617, 0.579185690382102, 1759503125655415648, 
-0.24595439434051514, -0.11966848373413086, 0.5178220821078237, 1759503125685384584, 
0.037981510162353516, -0.30360090732574463, 0.44937800093230884, 1759503125707606529, 
-0.18990880250930786, 0.03925633430480957, 0.5085872848059988, 1759503125735582668, 
0.05054086446762085, 0.25310713052749634, 0.4809402997642488, 1759503125765857972, 
-0.06603091955184937, 0.20209789276123047, 0.5139811507214488, 1759503125795564461, 
0.33901190757751465, 0.05260324478149414, 0.5563182297416698, 1759503125825601454, 
0.11452299356460571, -0.11795109510421753, 0.6646813638488566, 1759503125855717720, 
0.16570204496383667, 0.053874194622039795, 0.6064882573411443, 1759503126236684940, 
-0.43128901720046997, 0.21165144443511963, -0.013587100685953474, 1759503126268225952, 
-0.022695302963256836, -0.3123030662536621, -0.04643439462974025, 1759503126298509077, 
-0.06907904148101807, 0.008135497570037842, -0.02861919006279364, 1759503126326260263, 
0.7793927788734436, 0.8149289488792419, 0.10358434755456093, 1759503126356294823, 
0.5740047693252563, 0.23523032665252686, 0.2662277488946482, 1759503126378004091, 
-1.0578826665878296, 0.15878725051879883, 0.5295020309861961, 1759503126416494093, 
-0.37165021896362305, -0.19824159145355225, 0.742214330038125, 1759503126446621902, 
0.9200102090835571, 0.03230774402618408, 0.8833291385150196, 1759503126476602889, 
-0.06380736827850342, 0.30500614643096924, 0.8606420011485779, 1759503126508647544, 
0.1477012038230896, -0.24027544260025024, 0.8130572571505011, 1759503126539344386, 
-0.36365628242492676, -0.002651035785675049, 0.8631815992250382, 1759503126566768204, 
0.19472897052764893, 0.028189122676849365, 0.7671336389033327, 1759503126596690790, 
0.023863911628723145, -0.18431389331817627, 0.7138009155897784, 1759503126626747524, 
0.30162858963012695, -0.4066120982170105, 0.6229412932811695, 1759503126656987661, 
-0.03681880235671997, -0.2329179048538208, 0.4626310477337643, 1759503126686803148, 
-0.26803141832351685, 0.0006194710731506348, 0.3763763001106743, 1759503126716866414, 
-0.07337307929992676, 0.2593027353286743, 0.3629130822903063, 1759503126748628871, 
0.048511385917663574, 0.05466538667678833, 0.42754523658641663, 1759503126780070874, 
0.20491915941238403, -0.14261871576309204, 0.5497085905683785, 1759503126807271535, 
-0.1395387053489685, 0.27608323097229004, 0.48421162623281894, 1759503126836994541, 
0.1323843002319336, 0.11798375844955444, 0.47921246258570777, 1759503126867088771, 
0.16500580310821533, -0.20321142673492432, 0.46867660441038145, 1759503126897098450, 
-0.27566975355148315, -0.09721672534942627, 0.46719368930242, 1759503126927229042, 
0.02561342716217041, 0.2817707657814026, 0.4985820031838433, 1759503126957386914, 
-0.17633843421936035, -0.0366019606590271, 0.4850491367082689, 1759503126988396983, 
0.31860870122909546, -0.12347346544265747, 0.4340161712504547, 1759503127021075102, 
-0.04098677635192871, 0.171003520488739, 0.5588940336846412, 1759503127047366319, 
0.23936021327972412, 0.05574983358383179, 0.500468235525764, 1759503127077353214, 
-0.2656816244125366, -0.3134912848472595, 0.47196064779090274, 1759503127107385946, 
-0.0757799744606018, -0.08494168519973755, 0.4261168113398349, 1759503127137388802, 
-0.7550162076950073, -0.11030435562133789, 0.36257528005302486, 1759503127167453107, 
-0.17910128831863403, -0.20962762832641602, 0.14600846968892167, 1759503127196647499, 
-0.608272135257721, -0.49401915073394775, 0.01669903988194161, 1759503127228430622, 
-0.04799312353134155, 0.18516695499420166, -0.012959604572676494, 1759503127260311733, 
0.13315361738204956, 0.1138489842414856, -0.00133922497276228, 1759503127288128069, 
-0.25993919372558594, -0.03499406576156616, -0.009103949085033144, 1759503127316961725, 
0.06599253416061401, 0.14399570226669312, 2.424721348014605e-05, 1759503127347809301, 
0.13174962997436523, -0.012072920799255371, 0.006803018847787797, 1759503127377817466, 
-0.014043211936950684, -0.09606361389160156, -0.007865031466553993, 1759503127407805265, 
0.05382448434829712, -0.0674784779548645, 0.002710463033824804, 1759503127437844967, 
0.02702617645263672, 0.05470377206802368, 0.0017441799907521515, 1759503127468891574, 
0.0007926225662231445, 0.006089985370635986, -0.001695253152638497, 1759503127500482794, 
-0.014791309833526611, 0.0384867787361145, 0.0013711704970229648, 1759503127528347016, 
0.001335740089416504, -0.01917821168899536, -0.0006913344763571811, 1759503127558781543, 
-0.038593590259552, -0.06433713436126709, 0.00018992049210553636, 1759503127588749390, 
0.04575079679489136, -0.0055735111236572266, 0.0025917920241143727, 1759503127617910158, 
0.7817912101745605, 0.6716024279594421, 0.05972566443950766, 1759503127648704930, 
1.0109314918518066, 0.1568625569343567, 0.26126853185299054, 1759503127678723589, 
0.05508226156234741, 0.0010104775428771973, 0.40212680338839535, 1759503127708965140, 
1.1777849197387695, 0.0997210144996643, 0.5032761263340084, 1759503127740720875, 
-0.015605688095092773, 0.46171581745147705, 0.5806437546709733, 1759503127770056291, 
0.3093550205230713, 0.13590502738952637, 0.7134656094637735, 1759503127799085301, 
-0.4752422571182251, -0.26006942987442017, 0.7253052034512459, 1759503127828854723, 
0.06868201494216919, -0.1646081805229187, 0.6828803874805046, 1759503127858832366, 
-0.5557282567024231, 0.06061148643493652, 0.5970206701651569, 1759503127888874906, 
0.20017367601394653, -0.09844404458999634, 0.5081141661080383, 1759503127918869686, 
-0.2584824562072754, 0.03715628385543823, 0.47906589436543656, 1759503127947905465, 
0.6061246395111084, 0.1922643780708313, 0.4295597228128912, 1759503127980648161, 
-0.246135413646698, 0.31972044706344604, 0.520994154029319, 1759503128011392004, 
0.2958637475967407, -0.12687969207763672, 0.6148196124247662, 1759503128039005301, 
-0.11266040802001953, -0.12404084205627441, 0.5682382028728072, 1759503128067915606, 
-0.24831753969192505, 0.040982604026794434, 0.5720637184583457, 1759503128097943832, 
-0.36939239501953125, 0.2176763415336609, 0.5513647943553425, 1759503128129017578, 
0.7944522500038147, 0.023946642875671387, 0.5907225419580597, 1759503128159082910, 
-0.5676310062408447, 0.03452491760253906, 0.5563024993774884, 1759503128189393823, 
0.006748795509338379, 0.011378169059753418, 0.5132842737621593, 1759503128220722903, 
-0.20826774835586548, -0.09546661376953125, 0.47992571414930385, 1759503128251425040, 
-0.09304255247116089, 0.021751224994659424, 0.5071055981459243, 1759503128279171757, 
0.20461368560791016, 0.11873000860214233, 0.47833296228224964, 1759503128309323768, 
0.032527923583984375, 0.014722585678100586, 0.49914387091218343, 1759503128339105850, 
-0.07432061433792114, 0.04519528150558472, 0.4881511340447578, 1759503128359687598, 
-0.2521335482597351, -0.07009148597717285, 0.5273702078748714, 1759503128389133270, 
0.023319363594055176, -0.07878202199935913, 0.4434037550315462, 1759503128412474839, 
0.02586299180984497, 0.2986164093017578, 0.564970379398994, 1759503128449248003, 
0.2992945909500122, -0.11389905214309692, 0.5076045566249332, 1759503128479517713, 
-0.14348244667053223, 0.006182610988616943, 0.5156045686000913, 1759503128509320716, 
0.12872910499572754, -0.20717573165893555, 0.5019416813269936, 1759503128540201977, 
0.14646250009536743, 0.014610588550567627, 0.4504947440029693, 1759503128572485155, 
-0.14187169075012207, 0.28061795234680176, 0.5396211506744693, 1759503128599684578, 
0.14379894733428955, -0.10640537738800049, 0.47644033729181995, 1759503128629502228, 
-0.27687186002731323, 0.042325615882873535, 0.4938060383938852, 1759503128659625477, 
0.09910964965820312, -0.007889866828918457, 0.511908525457646, 1759503128689591498, 
0.22548818588256836, 0.04533243179321289, 0.5067499416560096, 1759503128719720260, 
-0.03984630107879639, 0.10012292861938477, 0.5125281172509649, 1759503128749680263, 
-0.04146295785903931, -0.014909982681274414, 0.49854538110500596, 1759503128780231459, 
-0.14777648448944092, 0.1369737982749939, 0.4593554300903855, 1759503128813031194, 
0.5556938648223877, 0.024948716163635254, 0.556067229031421, 1759503128839880649, 
-0.3122912049293518, 0.18988841772079468, 0.47520274894023057, 1759503128869825062, 
0.036500513553619385, -0.19445472955703735, 0.46597149006805105, 1759503128899881114, 
0.24411457777023315, 0.006359517574310303, 0.4869737867742519, 1759503128930023389, 
-0.4567716717720032, 0.052625417709350586, 0.5079793315154546, 1759503128959953666, 
0.0939437747001648, 0.11612874269485474, 0.5015737891706894, 1759503128989981151, 
0.1328592300415039, 0.046045899391174316, 0.510667609907119, 1759503129020349414, 
0.43101590871810913, -0.09183841943740845, 0.4752320423385325, 1759503129052258611, 
-0.3315412402153015, -0.009698450565338135, 0.5219798694469457, 1759503129080304752, 
0.5272135138511658, 0.10360151529312134, 0.4911626730704356, 1759503129110336666, 
-0.31478893756866455, -0.12658023834228516, 0.5359101875243169, 1759503129140187679, 
0.4062514305114746, 0.1619858741760254, 0.527769917167683, 1759503129170201092, 
-0.15328353643417358, 0.013424158096313477, 0.5134545105467304, 1759503129200472247, 
-0.012245714664459229, 0.03769385814666748, 0.5207719447494983, 1759503129230472314, 
-0.08053380250930786, 0.03410834074020386, 0.4836147351442435, 1759503129260946573, 
-0.03722739219665527, -0.05173778533935547, 0.4652456262243821, 1759503129292482759, 
-0.018276870250701904, 0.12581193447113037, 0.5002160695316493, 1759503129322871490, 
-0.3205987811088562, 0.035272300243377686, 0.576010255107675, 1759503129350469676, 
0.09237676858901978, -0.05535918474197388, 0.5178016355666362, 1759503129380580443, 
0.06631165742874146, -0.22307711839675903, 0.5353253905301026, 1759503129409598062, 
-0.005840122699737549, -0.0782654881477356, 0.47524265218195433, 1759503129440640269, 
0.3212321400642395, 0.0708346962928772, 0.49991692784767217, 1759503129470846080, 
-0.12107163667678833, 0.20581018924713135, 0.4944005501983043, 1759503129500752088, 
0.13823074102401733, 0.1281275749206543, 0.4883850012878763, 1759503129532199334, 
0.3364817500114441, -0.12713634967803955, 0.4831814852721973, 1759503129564191099, 
-0.10522115230560303, -0.08039098978042603, 0.589507355102261, 1759503129590947203, 
0.18579304218292236, 0.13888388872146606, 0.5060261281709949, 1759503129620981142, 
-0.08902430534362793, 0.10618263483047485, 0.42685193423851064, 1759503129644488346, 
-0.19443804025650024, -0.08559161424636841, 0.5832269664273406, 1759503129671107398, 
0.31878525018692017, 0.06964319944381714, 0.5028186844591731, 1759503129700973040, 
0.2323405146598816, -0.08874017000198364, 0.5048405003892369, 1759503129731045546, 
0.10214537382125854, 0.0848003625869751, 0.49189072937882095, 1759503129761224874, 
0.04710245132446289, -0.021737635135650635, 0.4911419791320849, 1759503129791146162, 
-0.14428472518920898, 0.2066258192062378, 0.49087025762095177, 1759503129821433226, 
0.04277467727661133, -0.20926570892333984, 0.4974448445949301, 1759503129852618140, 
0.015361607074737549, 0.035687267780303955, 0.48561530629604366, 1759503129884489514, 
0.343200147151947, -0.07140684127807617, 0.5436358232917847, 1759503129911650852, 
0.13806015253067017, 0.18339377641677856, 0.48659193258950806, 1759503129941427694, 
-0.0728803277015686, 0.12901735305786133, 0.4161556421121187, 1759503129964765867, 
-0.19230502843856812, 0.10280859470367432, 0.5540299279029552, 1759503130001457258, 
0.45894449949264526, -0.10380041599273682, 0.5102870353435082, 1759503130031598807, 
-0.3916836380958557, -0.016382813453674316, 0.49901103897831567, 1759503130061447080, 
0.0040160417556762695, 0.272072970867157, 0.4579701372887074, 1759503130092684466, 
-0.3383697271347046, 0.09789717197418213, 0.4788530984458144, 1759503130124435417, 
0.5825726389884949, -0.11434251070022583, 0.5570297791508819, 1759503130151674942, 
-0.031213223934173584, -0.2549145221710205, 0.515559017385094, 1759503130180613160, 
0.531012773513794, 0.10876595973968506, 0.43772340249451674, 1759503130211684520, 
-0.1563519835472107, 0.16724061965942383, 0.47223823609136334, 1759503130231796189, 
0.16330605745315552, 0.06209731101989746, 0.5037955114567668, 1759503130271771487, 
-0.010651767253875732, 0.21604323387145996, 0.4387440537890486, 1759503130306584474, 
-0.055403947830200195, 0.07155895233154297, 0.5596930103440643, 1759503130332359748, 
-0.06133711338043213, 0.04101210832595825, 0.45602705469776034, 1759503130364323622, 
-0.23867958784103394, -0.013101756572723389, 0.5349322467039036, 1759503130392052208, 
0.34923845529556274, 0.3334868550300598, 0.502022277258416, 1759503130422025571, 
-0.10232573747634888, -0.12720394134521484, 0.49176654780738077, 1759503130452135477, 
0.021188437938690186, -0.09996598958969116, 0.48571809343050554, 1759503130482332616, 
-0.5450577139854431, -0.06631648540496826, 0.5344622713889103, 1759503130512167223, 
1.0051788091659546, 0.28392326831817627, 0.5293563977579385, 1759503130542380528, 
-0.3696686029434204, 0.11068403720855713, 0.5218433081548283, 1759503130572300013, 
0.17852604389190674, -0.22301983833312988, 0.4529277210925359, 1759503130605152523, 
-0.223929762840271, -0.02541518211364746, 0.5814199101640953, 1759503130632622292, 
0.2723590135574341, 0.15233701467514038, 0.5380059271021969, 1759503130662312262, 
-0.015184462070465088, 0.02752751111984253, 0.5002275726085774, 1759503130692360248, 
-0.13395607471466064, 0.03123420476913452, 0.47665234536818296, 1759503130722480676, 
0.37828630208969116, 0.08197653293609619, 0.4945879088133962, 1759503130752638736, 
-0.07966119050979614, 0.07397657632827759, 0.5215050147803051, 1759503130782464477, 
0.3287920355796814, 0.0867229700088501, 0.5064477201897334, 1759503130812587862, 
-0.2130652666091919, -0.016111910343170166, 0.46925851135577934, 1759503130844376424, 
0.33292561769485474, 0.0914120078086853, 0.4857942661870246, 1759503130875075893, 
0.24268043041229248, -0.0497395396232605, 0.5482521062439122, 1759503130911676823, 
0.04626578092575073, -0.03108888864517212, 0.47743733084920653, 1759503130942759599, 
-0.36421412229537964, 0.1744626760482788, 0.5065918917277057, 1759503130973183556, 
0.06674337387084961, -0.058278560638427734, 0.4952801970788704, 1759503131004503496, 
0.33267396688461304, -0.21047121286392212, 0.49620986640206555, 1759503131035551546, 
-0.45513880252838135, 0.11793321371078491, 0.5458556627784793, 1759503131062872875, 
0.4610597491264343, -0.05392026901245117, 0.39784310722639454, 1759503131116080636, 
-0.016099274158477783, 0.17267942428588867, 0.5330157543588229, 1759503131153230600, 
-0.058874547481536865, 0.053033411502838135, 0.48804751172706007, 1759503131183233106, 
0.13137775659561157, -0.18667495250701904, 0.49049000226480294, 1759503131213316082, 
-0.2173641324043274, -0.2326858639717102, 0.4803271829877721, 1759503131245047762, 
0.3177458643913269, 0.35922980308532715, 0.49050987787992784, 1759503131275960149, 
0.3245500326156616, 0.10438907146453857, 0.5267105606763738, 1759503131313235585, 
-0.09641134738922119, -0.06854027509689331, 0.5040729254944935, 1759503131343247357, 
-0.08982378244400024, 0.040907442569732666, 0.4871818062494509, 1759503131373301498, 
0.38678044080734253, 0.2449347972869873, 0.4794533769379079, 1759503131404309267, 
-0.527254581451416, -0.4366685748100281, 0.45467205542214356, 1759503131436962456, 
0.7692197561264038, 0.16882026195526123, 0.5281942203849342, 1759503131473540069, 
0.11948400735855103, 0.40345633029937744, 0.48641478536102406, 1759503131503554498, 
-0.2507452368736267, -0.5352653861045837, 0.4981780506587133, 1759503131533542948, 
0.28303974866867065, 0.08668899536132812, 0.494171211944779, 1759503131564773762, 
-0.4338444471359253, 0.49969178438186646, 0.4911532194920478, 1759503131596612259, 
-0.09730654954910278, -0.34019237756729126, 0.5837689093475739, 1759503131623648567, 
0.047849833965301514, 0.25512510538101196, 0.5173955415571005, 1759503131653855582, 
0.46188926696777344, 0.3688482642173767, 0.5253920103195471, 1759503131683712334, 
0.14105957746505737, -0.4248644709587097, 0.5229569193690101, 1759503131713770534, 
-0.2494465708732605, 0.0028914809226989746, 0.49252077451753723, 1759503131743842564, 
-0.2322649359703064, 0.13732022047042847, 0.4942560363852927, 1759503131774148529, 
0.13588249683380127, -0.08366292715072632, 0.4896471828944395, 1759503131804670482, 
0.02269500494003296, 0.02086961269378662, 0.45814062940251643, 1759503131837005043, 
-0.10085725784301758, 0.10794883966445923, 0.5504373414618885, 1759503131864379621, 
0.5995108485221863, 0.04580658674240112, 0.5119165847447537, 1759503131894008757, 
0.2250732183456421, -0.1194581389427185, 0.45368896191754765, 1759503131917065482, 
0.24775105714797974, -0.0829017162322998, 0.562515992257201, 1759503131954174100, 
0.2358340620994568, -0.1751520037651062, 0.4996752749071849, 1759503131984150738, 
-0.26914846897125244, 0.13762271404266357, 0.48469444598804445, 1759503132014267442, 
-0.2012854814529419, 0.09868013858795166, 0.4885229313123665, 1759503132044436946, 
0.08827364444732666, 0.03182166814804077, 0.4549552779132261, 1759503132077144773, 
-0.07141125202178955, 0.29302144050598145, 0.5442051941173943, 1759503132104431843, 
0.06547409296035767, -0.19307440519332886, 0.5024965577084571, 1759503132134428705, 
0.08636283874511719, -0.08285170793533325, 0.4847630673993938, 1759503132164572978, 
-0.7049330472946167, -0.11445432901382446, 0.46480549331818727, 1759503132194473888, 
-0.2708229422569275, -0.043615520000457764, 0.4290012844932545, 1759503132224492437, 
0.542437732219696, -0.0041880011558532715, 0.4332871659759474, 1759503132254544177, 
0.5423207879066467, -0.20160400867462158, 0.4901934013717811, 1759503132283935369, 
0.03515827655792236, 0.27948832511901855, 0.4653185294230643, 1759503132316850853, 
-0.16876614093780518, 0.15295320749282837, 0.4973992572070921, 1759503132347335601, 
-0.314117431640625, -0.6137378215789795, 0.5249112099633798, 1759503132374708056, 
0.39057236909866333, 0.46637439727783203, 0.48993950036922407, 1759503132404893817, 
-0.14975982904434204, 0.7372989058494568, 0.48558114700783034, 1759503132434803555, 
0.023955702781677246, -0.7623182535171509, 0.47744522605564704, 1759503132464828985, 
0.3142404556274414, 0.005709588527679443, 0.5097897154093741, 1759503132494872373, 
0.06973659992218018, 0.5473470687866211, 0.5092355270087765, 1759503132523914435, 
0.051313161849975586, -0.4581819772720337, 0.4701122553817785, 1759503132556687244, 
0.17349153757095337, 0.18625354766845703, 0.5032853152504151, 1759503132588285589, 
0.03480952978134155, 0.22024327516555786, 0.5334238892429338, 1759503132625169797, 
0.05594092607498169, 0.276201069355011, 0.5130607825527117, 1759503132655491242, 
-0.05762648582458496, 0.06703567504882812, 0.5046802225806785, 1759503132685116641, 
-0.16415762901306152, -0.13325351476669312, 0.45378158370966315, 1759503132717165246, 
-0.07473641633987427, 0.07381939888000488, 0.45470335705651116, 1759503132747853999, 
-1.3545430898666382, -0.17738312482833862, 0.4788424088534166, 1759503132775498466, 
-1.1785473823547363, 0.03953957557678223, 0.35364096774117404, 1759503132805299793, 
-1.2673451900482178, -0.03750932216644287, 0.23642090644478542, 1759503132828641983, 
-0.32855224609375, -0.272316038608551, 0.23244357478212843, 1759503132855658164, 
-0.7287473678588867, -0.30468565225601196, 0.14114676555031427, 1759503132885348095, 
-0.5315821170806885, -0.03999209403991699, 0.08481972615486115, 1759503132909194776, 
-0.49279236793518066, 0.08056628704071045, 0.07391302754221264, 1759503132945451880, 
-0.004667997360229492, -0.06255686283111572, 0.017623179631178064, 1759503132975531108, 
0.21577852964401245, -0.14781039953231812, -0.018785744176331436, 1759503133005517345, 
-0.1561892032623291, -0.011515915393829346, -0.020314194118440123, 1759503133037173368, 
0.14290183782577515, -0.060100257396698, 0.010370368551657924, 1759503133068812202, 
0.07303881645202637, 0.015114009380340576, 0.002185451940051798, 1759503133095808809, 
0.0517733097076416, -0.0900384783744812, -0.00589933180937947, 1759503133125756049, 
-0.042497873306274414, -0.08126294612884521, 0.0009445484460570807, 1759503133154958452, 
-0.08235388994216919, -0.011351406574249268, 0.004132910571940915, 1759503133184909114, 
-0.03275418281555176, -0.03986966609954834, -0.0024043530011750285, 1759503133216077969, 
0.6892598271369934, 0.018278121948242188, 0.012601337843565548, 1759503133245878460, 
1.0625183582305908, -0.007851243019104004, 0.18140049021745375, 1759503133275912618, 
1.5501518249511719, 0.33169353008270264, 0.17815937225323678, 1759503133308658952, 
0.48266780376434326, 0.015157938003540039, 0.20978289616670787, 1759503133336122884, 
0.2212488055229187, -0.1579567790031433, 0.2745232112272121, 1759503133366213255, 
0.36717838048934937, 0.3323318362236023, 0.34565462731232666, 1759503133396141461, 
0.9537048935890198, -0.018073856830596924, 0.35389681401964357, 1759503133426199269, 
0.6167231202125549, 0.0869441032409668, 0.3929893197662205, 1759503133456206658, 
0.6341935992240906, 0.4637433886528015, 0.4593900251102097, 1759503133486289154, 
0.1253839135169983, 0.7085886001586914, 0.49281311035381226, 1759503133517022399, 
0.6730868220329285, -0.04925882816314697, 0.5046114268276976, 1759503133548090085, 
0.00828695297241211, -0.774176299571991, 0.5597079853463106, 1759503133576408816, 
-0.36732304096221924, 0.24942147731781006, 0.5043539071972817, 1759503133606575667, 
-0.0641409158706665, 0.9992698431015015, 0.5012305047311714, 1759503133636415184, 
-0.907704770565033, -0.5397477149963379, 0.4290003068518956, 1759503133659019107, 
0.39834415912628174, -0.9475537538528442, 0.5387525860832368, 1759503133696483762, 
-0.25107383728027344, 0.5401313304901123, 0.5274179056192961, 1759503133726700576, 
0.7858755588531494, 1.0225937366485596, 0.5208398738802142, 1759503133755921469, 
-0.1868268847465515, 0.01128387451171875, 0.4257971924717434, 1759503133789244931, 
0.1932961344718933, -0.898981511592865, 0.48110853388529495, 1759503133819826515, 
0.7672145366668701, 0.3850399851799011, 0.5692404386650247, 1759503133847288249, 
-0.12166035175323486, 0.7659223079681396, 0.49372636604587633, 1759503133876741753, 
-0.6408601999282837, 0.186814546585083, 0.4928885055279288, 1759503133905781839, 
-0.9311161041259766, -0.6224643588066101, 0.4636144504759945, 1759503133936835983, 
0.4686766266822815, -0.1036076545715332, 0.5152200494397218, 1759503133965915697, 
-0.18925559520721436, 0.6324851512908936, 0.5365147173435441, 1759503133997113276, 
0.5780722498893738, 0.3955357074737549, 0.5483046713849877, 1759503134028630859, 
-0.13338935375213623, -0.19258874654769897, 0.4959965344924325, 1759503134060017049, 
-0.5156894326210022, -0.17448103427886963, 0.5471582857534134, 1759503134097084127, 
-0.0880081057548523, -0.5544955134391785, 0.4972497260929121, 1759503134127403315, 
-0.2468070387840271, 0.3835652470588684, 0.5110634576615902, 1759503134157403176, 
0.047996461391448975, 0.49976301193237305, 0.4666663072612312, 1759503134189326056, 
0.4144778251647949, -0.06505024433135986, 0.4725562139139913, 1759503134220605793, 
-0.09629476070404053, -0.28179997205734253, 0.5245825536451718, 1759503134247379319, 
-0.02884882688522339, -0.3481982350349426, 0.4758817056088038, 1759503134277333145, 
0.6923131346702576, 0.08188432455062866, 0.4639760424986596, 1759503134307382310, 
-0.25582385063171387, 0.8973772525787354, 0.46821138622105274, 1759503134337605477, 
0.03693121671676636, 0.18262702226638794, 0.48053983250504706, 1759503134367574994, 
-0.561000406742096, -0.4872608780860901, 0.5089587978480904, 1759503134397623457, 
0.8661530613899231, 0.05801194906234741, 0.5199900452414278, 1759503134428638622, 
-0.44805556535720825, -0.30508702993392944, 0.4683243340272742, 1759503134460691224, 
0.19429516792297363, -0.7907704710960388, 0.5202875822480103, 1759503134487741433, 
-0.27257001399993896, 0.49864792823791504, 0.49011891509990874, 1759503134517795778, 
0.44745171070098877, 0.8774468302726746, 0.5197323578111566, 1759503134546954864, 
-0.9124053120613098, 0.1516169309616089, 0.49507551535475847, 1759503134577853358, 
0.6397750973701477, -0.5881718397140503, 0.5075691649853195, 1759503134607779750, 
-0.6325681209564209, -0.5465041995048523, 0.5300900889707253, 1759503134637813344, 
0.08903813362121582, 0.2635343074798584, 0.4981757970955784, 1759503134668613203, 
0.030942142009735107, 0.5721853375434875, 0.45346627685298124, 1759503134701048479, 
-0.11387753486633301, 0.40765535831451416, 0.5235183479843292, 1759503134728470312, 
-0.41181254386901855, -0.159216046333313, 0.49476447607283225, 1759503134758223096, 
-0.4869415760040283, -0.18005090951919556, 0.5599597347567632, 1759503134788157284, 
0.10420745611190796, 0.25519895553588867, 0.5553194672469445, 1759503134818134425, 
0.2872728109359741, 0.27457576990127563, 0.5291380599557577, 1759503134848358993, 
-0.11946892738342285, 0.5708565711975098, 0.49847927413606974, 1759503134878371654, 
-0.3266488313674927, -0.21791791915893555, 0.46848210637138055, 1759503134908719497, 
0.3221626281738281, -0.3099234104156494, 0.4334473453058638, 1759503134940561801, 
-0.835253894329071, -0.09649229049682617, 0.47725969327070306, 1759503134968464246, 
0.4259488582611084, 0.5057041645050049, 0.43169516221409854, 1759503134998516727, 
0.8325011730194092, 0.4888221025466919, 0.47885211984580045, 1759503135029074288, 
0.1798200011253357, 0.09098917245864868, 0.4842637669563869, 1759503135059140057, 
0.4230833649635315, -0.8059850335121155, 0.48632973153924686, 1759503135089065902, 
-0.27388501167297363, -0.07236319780349731, 0.47212098060010466, 1759503135119060238, 
-0.5261142253875732, 0.4962961673736572, 0.4511746250711961, 1759503135149154449, 
0.2660009264945984, 0.1974269151687622, 0.4672308533540817, 1759503135180822831, 
-0.1762157678604126, 0.8313436508178711, 0.5200809048977428, 1759503135211432934, 
0.8935914039611816, 0.840468168258667, 0.5624138339188995, 1759503135249522014, 
-0.14034277200698853, 0.8650926351547241, 0.5519404464015146, 1759503135279277812, 
0.6644323468208313, 0.3049561381340027, 0.5389329580314453, 1759503135309546599, 
-0.12679803371429443, 0.13532531261444092, 0.48761918914937796, 1759503135341132097, 
-0.5418114066123962, 0.5442098379135132, 0.5032213422477356, 1759503135371675887, 
0.3253825306892395, -0.00747370719909668, 0.554267008937027, 1759503135399207305, 
-0.4331507682800293, -0.33917945623397827, 0.5053099791638664, 1759503135429309137, 
0.057926058769226074, -0.31290507316589355, 0.4966175328828346, 1759503135459348023, 
-0.574683427810669, 0.5507181286811829, 0.48333591924062014, 1759503135489426443, 
-1.3064451217651367, 0.2156255841255188, 0.44584347137007124, 1759503135519344131, 
-1.6713943481445312, -0.3612666726112366, 0.36279996061719805, 1759503135549539119, 
-0.8347119092941284, -0.06311362981796265, 0.324532053279322, 1759503135580859196, 
-0.7342324256896973, 0.1353481411933899, 0.27085927460419024, 1759503135612579053, 
-0.8004472851753235, 0.1556859016418457, 0.24609997321309432, 1759503135639618461, 
-0.6246384382247925, -0.24845892190933228, 0.16422934523610613, 1759503135669531589, 
-0.8311527371406555, -0.11893939971923828, 0.11781441067169297, 1759503135692559557, 
-0.7706141471862793, -0.005482196807861328, 0.12617339589959675, 1759503135719752970, 
-0.9178687930107117, -0.052968382835388184, 0.08635732506576568, 1759503135749482994, 
-0.5848817825317383, -0.09257268905639648, 0.03583651693648566, 1759503135779582684, 
0.1334131956100464, -0.047568559646606445, -0.002401985920910609, 1759503135809532564, 
0.8441672325134277, -0.05757582187652588, -0.029987806286067786, 1759503135839569526, 
1.2306338548660278, 0.24563747644424438, 0.005427854040752852, 1759503135869544752, 
1.1982780694961548, 0.18670964241027832, 0.12707182532747677, 1759503135900800363, 
0.9884300231933594, 0.007031381130218506, 0.15746875053824172, 1759503135932722666, 
0.9049961566925049, 0.4216225743293762, 0.25036819587700876, 1759503135969660044, 
0.6273151636123657, -0.06235218048095703, 0.28663643898139285, 1759503135999718951, 
-0.4330529570579529, 0.05775517225265503, 0.32181704208646816, 1759503136029785519, 
1.2573769092559814, 0.43206626176834106, 0.37311367244024646, 1759503136060664116, 
0.520831286907196, -0.34132111072540283, 0.3619432816537158, 1759503136092815234, 
0.5855787396430969, -0.030157089233398438, 0.46119485960241413, 1759503136119015817, 
0.8689250946044922, 0.8955029845237732, 0.45166456701784596, 1759503136149953518, 
-0.018962860107421875, 0.37947458028793335, 0.49474939026063147, 1759503136180055689, 
0.4385055899620056, 0.04719442129135132, 0.5227769645796918, 1759503136210058563, 
-0.27790796756744385, 0.5247970223426819, 0.5278342237363997, 1759503136240510886, 
-0.2169649600982666, 0.7591383457183838, 0.5289701063440909, 1759503136270386899, 
-0.3700048327445984, 0.2987681031227112, 0.5005132815905153, 1759503136300983130, 
-0.150884747505188, 0.5278287529945374, 0.4693373831064187, 1759503136332757351, 
0.16979765892028809, 0.34522271156311035, 0.5606197629540192, 1759503136360582516, 
-0.7865260243415833, 0.5202517509460449, 0.5637546609519081, 1759503136390318925, 
0.48968935012817383, 0.2822689414024353, 0.5437183872528069, 1759503136420543786, 
-0.1310318112373352, -0.04961514472961426, 0.49203375833741136, 1759503136450549957, 
0.4927542209625244, 0.16872912645339966, 0.4873047910782736, 1759503136480426996, 
-0.4215717315673828, -0.13641047477722168, 0.5124242220047246, 1759503136510610539, 
0.018084466457366943, -0.3732488751411438, 0.5044241784563706, 1759503136541063669, 
-0.3304358720779419, 0.10723996162414551, 0.4792426054454278, 1759503136572605662, 
0.4222673177719116, -0.12037616968154907, 0.5182634362774624, 1759503136600631820, 
0.011497318744659424, 0.005099892616271973, 0.48944502377291577, 1759503136630543273, 
-0.38206446170806885, 0.2884632349014282, 0.4835217271622712, 1759503136660665289, 
-0.12036645412445068, 0.044831037521362305, 0.47075844862881827, 1759503136681915289, 
0.8757038116455078, 0.6590654253959656, 0.5469043602115662, 1759503136720750344, 
1.3242954015731812, 0.237046480178833, 0.5165193514402889, 1759503136750746619, 
-0.06364434957504272, -0.3247460126876831, 0.45687663669991657, 1759503136780863142, 
-0.21308308839797974, 0.7739661931991577, 0.40404498393629906, 1759503136813306755, 
-0.19093090295791626, 0.9338791966438293, 0.4468185007397227, 1759503136843635999, 
0.1778731346130371, -0.31293177604675293, 0.5457637027207366, 1759503136880043062, 
-0.2729582190513611, -0.6956830620765686, 0.4830476997582175, 1759503136911216211, 
0.7890212535858154, 0.4104357361793518, 0.5323934369307121, 1759503136941603682, 
-0.4490988254547119, 0.24930399656295776, 0.5167718440735557, 1759503136972718792, 
0.49627333879470825, -0.5891513824462891, 0.5073851186588537, 1759503137004230441, 
-0.1829226016998291, 0.6637046337127686, 0.5666378747701736, 1759503137031228945, 
0.8391276597976685, 0.3362850546836853, 0.47931619197660097, 1759503137061306475, 
-0.41010481119155884, -0.3901859521865845, 0.40887296122114986, 1759503137084631619, 
-0.07242631912231445, 0.4833133816719055, 0.5334154079573915, 1759503137111576950, 
0.28235673904418945, 0.6233386993408203, 0.5238113797895931, 1759503137141593589, 
-0.3512800931930542, -0.02127861976623535, 0.5370765477494387, 1759503137171473768, 
0.02670729160308838, 0.5804906487464905, 0.5310621703574956, 1759503137201422469, 
0.4672771096229553, 0.49314939975738525, 0.49839658043227386, 1759503137231458043, 
0.7537310123443604, -0.01212310791015625, 0.4781263219623698, 1759503137261628888, 
-0.6226893067359924, 0.6363566517829895, 0.5109513398121787, 1759503137292634275, 
0.8697512745857239, 0.7007899880409241, 0.4974595240768221, 1759503137325484693, 
-0.33365386724472046, 0.07103914022445679, 0.5656802644580298, 1759503137351688176, 
0.024121761322021484, 0.6493305563926697, 0.483178164594057, 1759503137381653186, 
-0.6069904565811157, 0.8042891621589661, 0.506228075390157, 1759503137411671203, 
-0.3118029832839966, -0.2842591404914856, 0.527515836345274, 1759503137431806979, 
-0.8987270593643188, 0.42224544286727905, 0.5079074872311712, 1759503137471755361, 
0.5521231293678284, 1.447542428970337, 0.46924982255217734, 1759503137501805888, 
-0.23801201581954956, -0.08364063501358032, 0.45635647439884286, 1759503137532662011, 
-0.044711410999298096, -0.4978176951408386, 0.4566266500897994, 1759503137564597762, 
-0.5924171805381775, 1.1112645864486694, 0.5598937446003116, 1759503137592093368, 
0.5203749537467957, 1.1111631393432617, 0.53574216033396, 1759503137620947071, 
0.10909789800643921, -0.9408420324325562, 0.47086569880541923, 1759503137652023299, 
-0.4616638422012329, -0.06376427412033081, 0.48360003859283723, 1759503137682082867, 
0.3658013343811035, 1.5746450424194336, 0.5332105778838397, 1759503137712261427, 
-0.4690079689025879, -0.37502676248550415, 0.5375770581310468, 1759503137742260344, 
-0.07078814506530762, -0.9168239235877991, 0.49546196937608444, 1759503137773360462, 
0.5138776302337646, 1.4821058511734009, 0.48278308440021045, 1759503137804726094, 
0.4134882688522339, 0.29549217224121094, 0.5360700809324478, 1759503137832612322, 
-0.1690499186515808, -1.4045332670211792, 0.47229040103691833, 1759503137862401770, 
0.02106529474258423, -0.23237454891204834, 0.4640500431096919, 1759503137892375003, 
-0.04172426462173462, 1.3686258792877197, 0.477662462904332, 1759503137922428477, 
0.5386088490486145, -0.43612509965896606, 0.49202941259103355, 1759503137952499708, 
0.2403116226196289, -0.2907538414001465, 0.49550201886724954, 1759503137982778310, 
-0.3419923782348633, -0.3072434663772583, 0.5323915099303886, 1759503138012652123, 
-0.019090652465820312, 1.560606598854065, 0.48934729147779743, 1759503138044820257, 
-0.8241743445396423, 0.8379577994346619, 0.5424192474302254, 1759503138072711798, 
0.412828266620636, -0.5600114464759827, 0.5022333131819657, 1759503138102670699, 
-0.2102137804031372, -0.15753096342086792, 0.5147748200839825, 1759503138132707285, 
-0.22440177202224731, 0.7630627751350403, 0.5080416105464227, 1759503138162949019, 
-0.25990402698516846, 0.6518319249153137, 0.5218458484257187, 1759503138192763509, 
0.15841180086135864, -0.6504512429237366, 0.5187429032263284, 1759503138222800783, 
0.16181766986846924, -0.5336626172065735, 0.5229125252600867, 1759503138252957397, 
-0.1500645875930786, 1.1960655450820923, 0.48533103321469473, 1759503138285280721, 
-0.12198054790496826, 0.6891366839408875, 0.4914177177900118, 1759503138315555304, 
0.3417138457298279, -0.8319042325019836, 0.5290903819570169, 1759503138342968088, 
-0.2412540316581726, -0.63857102394104, 0.5092881134022063, 1759503138372011445, 
-0.16286683082580566, 0.8454575538635254, 0.4776861028708285, 1759503138402010754, 
-0.9193751811981201, 1.0973341464996338, 0.4377183508777699, 1759503138433083496, 
0.3954232335090637, -0.21240770816802979, 0.46431438902309524, 1759503138463142871, 
0.006315052509307861, -0.5551572442054749, 0.46326732141472693, 1759503138493159195, 
-0.36815816164016724, 0.8170642852783203, 0.4535524571613765, 1759503138524951628, 
-0.37052685022354126, 1.4363930225372314, 0.4887740391508028, 1759503138556063608, 
0.1214415431022644, -0.06312423944473267, 0.5691276941526437, 1759503138583288349, 
-0.16102582216262817, -0.6716837286949158, 0.5079540988006847, 1759503138613586515, 
-0.22910702228546143, 1.298497200012207, 0.47922304678542277, 1759503138636399550, 
-0.08331948518753052, 0.40016674995422363, 0.5915671672031538, 1759503138663411910, 
-0.16343575716018677, -0.27910667657852173, 0.4737678571278395, 1759503138693719297, 
-0.21161043643951416, -0.1700311303138733, 0.4843673308006867, 1759503138723498872, 
-0.2930879592895508, 0.5066278576850891, 0.5113881734223581, 1759503138753738519, 
-0.2705860733985901, 0.19769209623336792, 0.5098526761917794, 1759503138783619483, 
0.358481764793396, -0.43715763092041016, 0.48565421432444056, 1759503138813667125, 
-0.3924737572669983, 0.10219401121139526, 0.48134392046709834, 1759503138844729624, 
0.17321854829788208, 0.123390793800354, 0.4787865236489244, 1759503138876943545, 
-0.4924767017364502, -0.05059748888015747, 0.5764794765133262, 1759503138904360690, 
-0.4120648503303528, 0.3650031089782715, 0.5447024223069886, 1759503138934448605, 
-0.006418585777282715, 0.5257065296173096, 0.5209609364350732, 1759503138964534818, 
-0.17597252130508423, -0.6657888889312744, 0.49989712554486426, 1759503138993950126, 
0.9895786643028259, -0.6939122080802917, 0.5415139800799209, 1759503139022916637, 
-0.034292638301849365, 0.1698930263519287, 0.4877306277819825, 1759503139054043680, 
0.2709980010986328, 0.750146746635437, 0.4513885380322047, 1759503139084728926, 
-0.0825732946395874, 0.9408335089683533, 0.4438926171053919, 1759503139116197637, 
0.8182506561279297, 0.4037624001502991, 0.5187046316562585, 1759503139144173574, 
-0.41927558183670044, -0.08759832382202148, 0.473764011780273, 1759503139174126446, 
-0.10782468318939209, -0.6633575558662415, 0.4705655333297039, 1759503139204187628, 
-0.20733749866485596, -0.04095339775085449, 0.47928344972693143, 1759503139234229123, 
-0.02419412136077881, -0.04610741138458252, 0.4678914504084737, 1759503139264400306, 
-0.03670048713684082, 0.7103742957115173, 0.4828774323624912, 1759503139294309974, 
0.04556882381439209, 0.2802848219871521, 0.49079722215249905, 1759503139325161374, 
0.02593153715133667, -0.3305785655975342, 0.4635166586909587, 1759503139357550088, 
0.3979036808013916, 0.40001702308654785, 0.5465955341848815, 1759503139384431586, 
-0.07030987739562988, 0.540141761302948, 0.4639840885847044, 1759503139414563548, 
-0.5854897499084473, 0.6904381513595581, 0.4554766222742262, 1759503139444490208, 
0.10972893238067627, 0.24177730083465576, 0.47649353919176557, 1759503139474534378, 
-0.35934412479400635, -0.42879223823547363, 0.4882416199288567, 1759503139504593918, 
0.3505516052246094, -0.8275389075279236, 0.48942856715765787, 1759503139534651239, 
0.5544731616973877, 0.6286378502845764, 0.46737712844762397, 1759503139565253663, 
-0.11976128816604614, 0.5008171796798706, 0.41612806348700787, 1759503139596997813, 
-0.2446473240852356, 0.3892923593521118, 0.5081250584028986, 1759503139623911336, 
0.4404458999633789, 0.445095956325531, 0.4514191996422267, 1759503139655257027, 
0.021207034587860107, 0.3506089448928833, 0.4632033512735314, 1759503139684891702, 
-0.35035836696624756, -0.4888439178466797, 0.4674110758121943, 1759503139714972533, 
0.2891548275947571, -1.1538902521133423, 0.5126346127883809, 1759503139745072881, 
0.5099043250083923, -0.020998716354370117, 0.4935316093171734, 1759503139774992334, 
0.16424119472503662, 0.3137798309326172, 0.4261555442336909, 1759503139806483069, 
-0.1676250696182251, -0.29707056283950806, 0.4203049702317683, 1759503139837310142, 
-0.15428656339645386, -0.05373561382293701, 0.44992277348734616, 1759503139875182276, 
0.17188209295272827, 0.3364372253417969, 0.43655887915677344, 1759503139905487133, 
-0.34975606203079224, 0.8577951788902283, 0.42152801198605694, 1759503139935247381, 
0.057572126388549805, 0.7215580940246582, 0.4148333781317912, 1759503139965309092, 
0.19374388456344604, 0.20013427734375, 0.4210015043540727, 1759503139997593767, 
0.06472885608673096, -0.04386705160140991, 0.42299324825140344, 1759503140028163560, 
-0.20990949869155884, -0.5698156356811523, 0.44619262461223874, 1759503140055424962, 
0.012226760387420654, 0.054413676261901855, 0.434000356626161, 1759503140085493663, 
0.07792329788208008, 0.08337992429733276, 0.4116615910826587, 1759503140108150618, 
-0.3883134722709656, 0.12190169095993042, 0.48444971820769367, 1759503140145485992, 
0.3530014157295227, 0.14837604761123657, 0.45695666174484084, 1759503140175538780, 
0.21496987342834473, 0.4878196120262146, 0.47268104480715145, 1759503140205558652, 
0.46973758935928345, 0.20588785409927368, 0.4015301783103487, 1759503140237292379, 
0.14552295207977295, -0.8388081789016724, 0.39088926281571484, 1759503140269038054, 
-0.5638191103935242, 0.34402239322662354, 0.4720602504097338, 1759503140305650711, 
0.7636138796806335, 0.3086702227592468, 0.45318499998060513, 1759503140335703237, 
-0.09692341089248657, -0.15534251928329468, 0.40279002818019677, 1759503140365772755, 
-0.1090230941772461, -0.7482051849365234, 0.37420542456449407, 1759503140397024048, 
0.2225072979927063, -0.2970370054244995, 0.3889322182424106, 1759503140429000959, 
-0.12256026268005371, 0.19363141059875488, 0.4628917628454941, 1759503140454922906, 
-0.03730219602584839, 0.29161536693573, 0.3768005930837821, 1759503140484939022, 
-0.298086941242218, 0.3742525577545166, 0.36388691136964635, 1759503140515978192, 
-0.13901978731155396, 0.45668500661849976, 0.40684831382920605, 1759503140546201217, 
-0.0839318037033081, 0.3294656276702881, 0.39168239957533724, 1759503140576281135, 
0.7431324124336243, 0.44971758127212524, 0.3516773742085073, 1759503140606404844, 
-0.4179946780204773, 0.792608380317688, 0.340311321311047, 1759503140637475865, 
-0.5538353323936462, 0.3528822064399719, 0.36195476528433707, 1759503140667929774, 
0.0403096079826355, 0.23476910591125488, 0.3801596454600039, 1759503140696426385, 
-0.015820443630218506, -0.3970034718513489, 0.3226980673509522, 1759503140726343387, 
0.17850792407989502, 0.09344792366027832, 0.34934023741082715, 1759503140756333889, 
0.23911190032958984, -0.07149487733840942, 0.36714584738271266, 1759503140786378586, 
-0.2686806917190552, -0.06421810388565063, 0.35313185049920526, 1759503140816427450, 
0.06529051065444946, 0.15224045515060425, 0.39428572071608337, 1759503140846671126, 
-0.13781052827835083, 0.15893888473510742, 0.40759132559216577, 1759503140877353125, 
-0.05552387237548828, 0.19055509567260742, 0.3560313641120851, 1759503140909331556, 
0.5050908327102661, -0.1666528582572937, 0.42662412541263844, 1759503140946639403, 
0.08228194713592529, 0.009092867374420166, 0.36774008967057503, 1759503140976627081, 
0.08171159029006958, 0.20914053916931152, 0.3369013210222782, 1759503141006685138, 
-0.41148316860198975, 0.4734899401664734, 0.3379353615517452, 1759503141037061842, 
0.4120791554450989, -0.09129095077514648, 0.3100971600217693, 1759503141068853972, 
-0.5828776359558105, -0.09913301467895508, 0.32722868297363467, 1759503141098970674, 
0.029565930366516113, 0.4632284641265869, 0.3585591557318217, 1759503141136884631, 
-0.45991700887680054, 0.5468683838844299, 0.334959482280133, 1759503141166971115, 
-0.525804340839386, 0.3214572072029114, 0.3350458364269236, 1759503141197321117, 
0.1817781925201416, -0.08134067058563232, 0.3299859929897055, 1759503141228967791, 
0.0026491880416870117, 0.09491479396820068, 0.33520087752554495, 1759503141259365933, 
0.14635419845581055, 0.9777486324310303, 0.37501500975808816, 1759503141297142570, 
-0.7139286994934082, 0.5979554057121277, 0.34619030179254673, 1759503141327101213, 
-0.4495773911476135, 0.23910635709762573, 0.3376780347591306, 1759503141356581859, 
-0.10701066255569458, 0.39267367124557495, 0.32755968894833287, 1759503141389053670, 
-0.0521354079246521, -0.12864458560943604, 0.3349854434797483, 1759503141420003926, 
-0.11127430200576782, -0.04332435131072998, 0.37987289370482413, 1759503141447418949, 
0.0640295147895813, 0.4127413034439087, 0.37261092086510045, 1759503141477342816, 
0.27642643451690674, 0.03226971626281738, 0.3823311823995837, 1759503141507439915, 
0.1763860583305359, 0.33260923624038696, 0.37141053593356244, 1759503141537550816, 
0.15242940187454224, 0.013841986656188965, 0.34760510337295236, 1759503141567478808, 
-0.05364048480987549, -0.09427320957183838, 0.3434708253903458, 1759503141597582193, 
0.043558597564697266, -0.05453759431838989, 0.3320085032475038, 1759503141629278614, 
0.034718334674835205, 0.19127535820007324, 0.3187627911790222, 1759503141661307065, 
0.2545660138130188, -0.3844609260559082, 0.3343667102139353, 1759503141697721746, 
0.2682574391365051, -0.05447280406951904, 0.3442526473349533, 1759503141727679797, 
0.38288938999176025, 0.11021548509597778, 0.3078299567279676, 1759503141757716886, 
0.11291104555130005, 0.06919848918914795, 0.2729575277665496, 1759503141789763984, 
0.1431630253791809, 0.2525249123573303, 0.3056449538278571, 1759503141821311903, 
-0.22242319583892822, 0.10800909996032715, 0.3544075407977736, 1759503141848035951, 
0.14555251598358154, -0.3095172047615051, 0.3189805079174179, 1759503141876985494, 
0.08543294668197632, 1.2701491117477417, 0.290949123560438, 1759503141901167704, 
-0.19839751720428467, 0.42515766620635986, 0.3921199853573324, 1759503141928119169, 
0.2695116400718689, -0.05211615562438965, 0.3310056007915004, 1759503141958125582, 
0.13913178443908691, 0.2334522008895874, 0.3446038001238031, 1759503141988146399, 
0.4065614938735962, -0.1928168535232544, 0.3262373933817181, 1759503142018293261, 
-0.017389893531799316, -0.42521482706069946, 0.3163734774491725, 1759503142048309319, 
-0.09865456819534302, 0.18740791082382202, 0.3317752513257667, 1759503142078177824, 
0.5084604024887085, 0.12934082746505737, 0.30031841936678016, 1759503142109695835, 
-0.2048567533493042, -0.14787530899047852, 0.2842361065556441, 1759503142141194111, 
-0.27530938386917114, 0.219207763671875, 0.3563783858785582, 1759503142168600175, 
0.002436220645904541, 0.04280918836593628, 0.3278103604471778, 1759503142198335149, 
0.05697149038314819, -0.26984184980392456, 0.31303653763934725, 1759503142228576373, 
-0.012186169624328613, 0.2683112621307373, 0.3459708236902256, 1759503142258648650, 
-0.7829211950302124, 0.4328290820121765, 0.3401059981033274, 1759503142288411798, 
-0.007212340831756592, 0.32797276973724365, 0.31234595390854875, 1759503142318479866, 
-0.018265485763549805, 1.225874662399292, 0.34102519709453133, 1759503142349144605, 
0.012985050678253174, 0.6809884905815125, 0.3227663601825779, 1759503142380958573, 
-0.3401060104370117, -0.19624382257461548, 0.3149855808124921, 1759503142409123391, 
-0.3540533185005188, 0.2317744493484497, 0.2913077014095598, 1759503142438695995, 
0.2569328546524048, 0.7770152688026428, 0.29656012463878356, 1759503142468739200, 
0.2780160903930664, 0.5791755318641663, 0.29258028006041414, 1759503142499394816, 
0.37003767490386963, 0.3959302306175232, 0.2975061947164593, 1759503142529450449, 
-0.007458984851837158, -0.07478290796279907, 0.3143207932058843, 1759503142559397132, 
0.2712711691856384, 0.21204876899719238, 0.3363578996570083, 1759503142589504936, 
0.49472856521606445, 0.03829234838485718, 0.3219523444829658, 1759503142621437517, 
-0.23851001262664795, 0.008246243000030518, 0.32079053899040455, 1759503142651964663, 
0.37134552001953125, -0.07186770439147949, 0.36954278210794284, 1759503142679641860, 
0.45516449213027954, 0.36636656522750854, 0.32779753896759056, 1759503142709510372, 
-0.20903688669204712, -0.15825772285461426, 0.25436870659597605, 1759503142731570357, 
-0.20042580366134644, -0.2605476379394531, 0.3252556280125401, 1759503142769672090, 
-0.0383685827255249, -0.36752867698669434, 0.3272825707035984, 1759503142799596025, 
-0.03012901544570923, -0.26668763160705566, 0.28725850939736075, 1759503142829743822, 
-0.03503072261810303, 0.09215080738067627, 0.30618370447111465, 1759503142861227820, 
-0.08055698871612549, -0.07085686922073364, 0.33587677454737913, 1759503142892052553, 
