acc_x, acc_y, angular_z, stamp, 
-0.041944821089723736, 0.1295203736182839, 0.2504435150425931, 20237000000, 
-0.020601069997478322, 0.2127714733452441, 0.2496484926602552, 20242000000, 
-0.0320894941271432, 0.25376640106555703, 0.2502762251919873, 20252000000, 
-0.07269385294029487, 0.15206716876725457, 0.25027521268556163, 20517000000, 
-0.04673830684743523, 0.24648745418886306, 0.2501102160161233, 20522000000, 
-0.061028099944604515, 0.09610837261116423, 0.25002521673571065, 20527000000, 
-0.04730291346011297, 0.1621888624991002, 0.25058387419474154, 20532000000, 
-0.07147619556102727, 0.13064648822097066, 0.2501148060080829, 20538000000, 
-0.0731011077692579, 0.19308555975647176, 0.25047521518895305, 20543000000, 
-0.06819130340268892, 0.24581008247626018, 0.2503087590058248, 20548000000, 
-0.06380190935770985, 0.10480794595749608, 0.25003514016036077, 20553000000, 
-0.0738674270297229, 0.18545382547380904, 0.25032113907979814, 20558000000, 
-0.02762271157712842, 0.15325705875406645, 0.2501365749525901, 20563000000, 
-0.08535308083021595, 0.15521475869228762, 0.2502707961565069, 20568000000, 
-0.0777079444893835, 0.22486512328567929, 0.2500043177357976, 20573000000, 
-0.031376810634886676, 0.10072457742316333, 0.2500299980908485, 20579000000, 
-0.06035799956322599, 0.1855363965005117, 0.2502463987888868, 20584000000, 
-0.07890560711645782, 0.16953595804114902, 0.2503734542305617, 20591000000, 
-0.06898970480459435, 0.17580777407308887, 0.2504132072750548, 20596000000, 
-0.06351117692425824, 0.24434381418570206, 0.2499701080836147, 20601000000, 
-0.05616393197022923, 0.10896987378370143, 0.25025699455342926, 20606000000, 
-0.06228906916538139, 0.258899586769859, 0.25012305880017605, 20611000000, 
-0.05677123560317977, 0.09404733747713212, 0.24998562633984994, 20616000000, 
-0.07069669357436797, 0.1628015758435301, 0.25026405399726526, 20621000000, 
-0.06960370939483802, 0.2674550567520606, 0.25034373481026984, 20626000000, 
-0.048285632222820396, 0.12200761473034459, 0.2499811223955722, 20631000000, 
-0.07704753948280588, 0.15445680501711107, 0.25025290330185523, 20636000000, 
-0.04198291716415229, 0.18949460533276302, 0.24996290147099592, 20641000000, 
-0.07088272500179237, 0.1906520308031512, 0.2503518408131935, 20646000000, 
-0.06130509569881831, 0.2558547755992984, 0.24985996644353692, 20651000000, 
-0.029574645645986386, 0.1190075090697692, 0.2501327612704981, 20656000000, 
-0.07987868350804014, 0.2455192549428154, 0.2506706970189526, 20661000000, 
-0.03710968416856816, 0.11479823807788793, 0.2501744166713816, 20666000000, 
-0.07240983901687124, 0.19560657393327283, 0.2501177604998499, 20671000000, 
-0.07695815356446044, 0.22261274510032864, 0.24996936333802838, 20676000000, 
-0.06144568822782128, 0.10164765028917484, 0.2500215924132028, 20681000000, 
-0.052780861442940294, 0.18949705729389127, 0.25034995821976913, 20686000000, 
-0.06162716716200923, 0.21770945338475525, 0.24975308860622325, 20691000000, 
-0.02948652118611057, 0.12542039897284735, 0.24993367510994052, 20697000000, 
-0.07888402739442504, 0.2662708859385555, 0.2501890863498392, 20702000000, 
-0.04447962303622856, 0.03616881225617942, 0.25011371767107454, 20707000000, 
-0.024478918046628828, 0.20534453257518645, 0.2507637057993814, 20712000000, 
-0.05921688687684307, 0.25220979811881045, 0.24988124282362956, 20717000000, 
-0.03436259729381333, 0.08116564427236157, 0.2501053050165848, 20722000000, 
-0.08148751929480341, 0.17131568913080078, 0.25043535176298276, 20727000000, 
-0.06649624952415313, 0.26786338845869967, 0.25012793200432104, 20732000000, 
-0.030951058357799866, 0.10086843515963302, 0.24996265629668693, 20737000000, 
-0.08933708431154662, 0.23520747642489775, 0.25015612570209894, 20742000000, 
-0.059080589987064926, 0.20563291907006512, 0.25005412982253894, 20747000000, 
-0.0573655117952977, 0.08106691633894865, 0.25033564290374144, 20752000000, 
-0.06425677087579354, 0.2593287420151099, 0.25010343786379013, 20757000000, 
-0.03636748719061583, 0.1039745076767826, 0.24988003535619674, 20762000000, 
-0.06243795599088923, 0.18873639701656886, 0.25017019271510144, 20767000000, 
-0.09039813864916812, 0.2491268555843289, 0.2504702315915798, 20772000000, 
-0.054663681473814216, 0.06675899305020502, 0.24981767085359807, 20777000000, 
-0.08589289798747599, 0.18142056534311754, 0.2503761661121302, 20782000000, 
-0.06610327069269532, 0.2524351371743159, 0.2505133229059382, 20787000000, 
-0.039137334937197815, 0.06040826138256964, 0.25012818703947104, 20792000000, 
-0.033606615033916085, 0.18053305850280363, 0.25019327527857815, 20797000000, 
-0.05232718798110962, 0.28256366787003007, 0.24991001104468252, 20802000000, 
-0.012267747513065533, 0.05088824971824095, 0.2501528065098451, 20807000000, 
-0.07095357117197766, 0.17448755978650024, 0.25075724154664064, 20812000000, 
-0.04676976570761222, 0.2105854616432568, 0.2501309178002273, 20817000000, 
-0.06762675245654699, 0.1810498592817424, 0.2502644366971803, 20822000000, 
-0.08403535102927927, 0.32152650919940534, 0.2501259000645632, 20827000000, 
-0.05437891278251951, 0.07776260198715089, 0.2503793985669857, 20832000000, 
-0.07807065685032744, 0.1817522960909889, 0.25079782742314016, 20837000000, 
-0.08852716904817978, 0.22143273667432706, 0.25002155571868284, 20842000000, 
-0.046544129492285966, 0.09538112857284181, 0.25056486022584207, 20847000000, 
-0.0805943694142898, 0.18096883754481916, 0.2507473365491194, 20852000000, 
-0.08903027759174578, 0.2428901727978101, 0.25016218294698783, 20857000000, 
-0.05176349487559524, 0.07289939429226941, 0.2497494551927759, 20862000000, 
-0.0733244252507163, 0.19060484137093067, 0.2506033481324562, 20867000000, 
-0.030673870107894952, 0.19339945834673078, 0.2496953643457758, 20872000000, 
-0.05270581431562999, 0.1517347883390507, 0.24975101623309864, 20877000000, 
-0.061700012487626264, 0.20002941526319903, 0.25045471200448555, 20882000000, 
-0.07250306626799798, 0.22617768401993826, 0.2502508035793933, 20887000000, 
-0.06679756960123846, 0.2052431147660293, 0.2502829924794658, 20892000000, 
-0.06829179016794462, 0.23619529324795493, 0.2505171588500712, 20897000000, 
-0.025138792698280465, 0.08041553542587355, 0.25016738399068605, 20902000000, 
-0.04826078074163146, 0.16463549410013423, 0.2503362137945429, 20907000000, 
-0.07456420472686599, 0.26838697763592306, 0.24985642114191733, 20912000000, 
-0.016569323795418936, 0.1071500535831248, 0.2501768907504962, 20918000000, 
-0.09607148641194928, 0.283755430533835, 0.2505158564963081, 20923000000, 
-0.022068577184507457, 0.09306372313401332, 0.2502707100315926, 20928000000, 
-0.05122464324189521, 0.17343258204830408, 0.25026707578053353, 20933000000, 
-0.09047267347627784, 0.2556802181638957, 0.24969104976462592, 20938000000, 
-0.05182069144165906, 0.08761556293216274, 0.2501212045662082, 20943000000, 
-0.0578221111277277, 0.26421846133865134, 0.2505323592140079, 20948000000, 
-0.03194493326561113, 0.09734011421511321, 0.2502540260644819, 20953000000, 
-0.09865573452379638, 0.1839791917775643, 0.25036361838682897, 20958000000, 
-0.0964774880235999, 0.265343653269769, 0.2500724655362137, 20963000000, 
-0.027394219528525804, 0.10487547118353041, 0.25009725600224086, 20968000000, 
-0.07103531456086373, 0.21815430234391245, 0.2504017616456605, 20973000000, 
-0.03956436607426338, 0.19330130166051612, 0.24977395690091095, 20978000000, 
-0.08196715051454824, 0.1643953281503902, 0.250456262281471, 20983000000, 
-0.09335654712970395, 0.2589554669137236, 0.250456437871721, 20988000000, 
-0.004486982624495969, 0.08664182991760547, 0.24999342739910924, 20993000000, 
-0.052605165007099546, 0.17230595807180193, 0.2503095174244437, 20998000000, 
-0.08195773115148752, 0.26621081750918796, 0.25026054907119943, 21003000000, 
-0.02038042601181544, 0.059874931811203375, 0.2498276283068151, 21008000000, 
-0.07282506115796933, 0.17452913960521824, 0.25007641841475803, 21013000000, 
-0.11815565463089157, 0.28051099004383684, 0.2504854598271814, 21018000000, 
-0.014943446436712535, 0.07253654704773344, 0.25013708799952694, 21023000000, 
-0.03948732929827546, 0.19322103150707787, 0.2505340046043069, 21028000000, 
-0.05247079044440586, 0.16419012318910375, 0.2500286240773283, 21036000000, 
-0.028766320462910007, 0.15896107104118595, 0.250347830588755, 21041000000, 
-0.07888333006773311, 0.26087167150673696, 0.25027606669252317, 21046000000, 
-0.02625650172854229, 0.068810918551444, 0.25043273137771155, 21051000000, 
-0.04798161229116614, 0.2034131816000542, 0.25072751630446477, 21056000000, 
-0.09347693986959427, 0.25127665118582115, 0.25000168950998886, 21061000000, 
-0.008548016095115088, 0.059273925491971746, 0.25047084181627405, 21066000000, 
-0.11808289963314984, 0.26368767729334364, 0.25036014020111647, 21071000000, 
-0.028884482441586867, 0.07555859619600411, 0.2503268569609683, 21076000000, 
-0.030474289446023466, 0.17763448447591068, 0.2505602610581059, 21081000000, 
-0.10801627494071674, 0.25699894228591297, 0.2501301529107559, 21086000000, 
-0.011255424796565532, 0.07979359726902283, 0.2501184930816993, 21091000000, 
-0.055984608948431706, 0.2738874328319069, 0.2504991221639491, 21096000000, 
-0.019138723597584728, 0.12982208943436857, 0.24980348314904222, 21101000000, 
-0.056141341057899675, 0.18224401202697654, 0.25035193396731115, 21106000000, 
-0.09893199034049174, 0.2760527881337913, 0.25012012370051456, 21111000000, 
-0.042286477388489174, 0.05611340172770767, 0.25007585638575414, 21116000000, 
-0.06399423821066105, 0.1853208012832717, 0.2504641583493864, 21121000000, 
-0.07681540396898522, 0.24801814766257213, 0.2500128627536608, 21126000000, 
-0.04964707495596558, 0.05685890141172964, 0.2498144456830498, 21131000000, 
-0.06514675116230688, 0.19580033429198723, 0.2502256910186107, 21136000000, 
-0.08410682672856985, 0.2733014169798052, 0.2499498189632816, 21141000000, 
-0.016238008962275816, 0.07456099895899365, 0.25007665669946605, 21146000000, 
-0.06866522087869746, 0.25352177154042066, 0.25038106268806914, 21151000000, 
-0.08266240851584042, 0.17117224135547576, 0.25016224548313076, 21156000000, 
-0.008670950185312677, 0.07083905986808708, 0.25004207427724, 21161000000, 
-0.0709781557719803, 0.19786229142104197, 0.25027006734421947, 21166000000, 
-0.08866355548201375, 0.2276927046955177, 0.24985976904794507, 21171000000, 
-0.007117899678224116, 0.11242027433909497, 0.2505227932691383, 21176000000, 
-0.02946032287135733, 0.16365792633984783, 0.2502022487988028, 21181000000, 
-0.0988372746725698, 0.24129756999475135, 0.2502352472445747, 21186000000, 
-0.01732388820600975, 0.09190218939404911, 0.25040137142247093, 21191000000, 
-0.05451038748529877, 0.19809600033286268, 0.25050785675290355, 21196000000, 
-0.07266250296204671, 0.168023395660918, 0.25031094836796836, 21201000000, 
-0.05771679611990262, 0.16580319006437738, 0.25021539976456886, 21206000000, 
-0.11091235993328329, 0.27155643083255954, 0.2507052818723372, 21211000000, 
-0.025602313302250396, 0.10393720491244633, 0.2501718750303819, 21216000000, 
-0.04159105532899786, 0.18680800604924838, 0.2505070029568348, 21221000000, 
-0.11569106362611908, 0.2769042016778483, 0.24972323076266914, 21226000000, 
-0.014433266586369689, 0.09192087251042079, 0.2503396868786472, 21231000000, 
-0.10664161493423717, 0.26985812962453476, 0.2500283757366201, 21236000000, 
-0.04196191335603096, 0.12091575406407135, 0.2500574808083578, 21241000000, 
-0.05714215489268092, 0.18055024306383669, 0.25050440108253214, 21246000000, 
-0.1215232616969342, 0.2743290992367347, 0.2498272971936284, 21251000000, 
-0.012758666763902837, 0.07971723268904739, 0.24972005313292875, 21256000000, 
-0.08410759448611943, 0.20417194325992696, 0.25079490490344525, 21261000000, 
-0.05303936746923537, 0.14983055833748932, 0.24991081964856865, 21267000000, 
-0.029398772153790838, 0.16779110771547517, 0.2501699261515377, 21272000000, 
-0.10034396755170572, 0.2895161680220797, 0.2502139152362829, 21277000000, 
-0.0196838597557228, 0.0643838572054019, 0.25023324365450683, 21282000000, 
-0.06942002406718997, 0.15551077390725282, 0.2502392508895381, 21287000000, 
-0.09558273619170315, 0.2393158270643734, 0.24989962848780087, 21292000000, 
-0.0423150079417403, 0.10761956876061754, 0.24990818243641993, 21297000000, 
-0.07520355692981846, 0.17638867113662443, 0.25031540562375354, 21302000000, 
-0.05720100961495553, 0.2737956802139661, 0.2497876638639758, 21307000000, 
-0.02317051791817488, 0.10097318050700443, 0.25012146539925534, 21312000000, 
-0.11147883954910433, 0.25146122624769124, 0.25035682420967026, 21317000000, 
-0.00986231913704026, 0.09215124408041084, 0.24986569175676573, 21322000000, 
-0.06926008873081324, 0.15330771767259554, 0.25016477471641496, 21327000000, 
-0.11746574333261131, 0.26678160814193036, 0.2499840990898936, 21332000000, 
-0.012669256224652564, 0.08575531277454107, 0.2501734903810518, 21337000000, 
-0.0374454054858038, 0.19411015587774447, 0.25016570127724463, 21342000000, 
-0.10622023305744992, 0.2902887977145883, 0.2502697176705738, 21347000000, 
-0.02235720341095234, 0.06496231666831373, 0.2505112666006231, 21352000000, 
-0.0992217713690715, 0.1772845742655544, 0.2505005987850732, 21357000000, 
-0.12068277624666142, 0.29495095662933557, 0.2501346659570129, 21362000000, 
-0.04406170946915617, 0.0703208127746893, 0.25005186792888495, 21367000000, 
-0.07960615660209985, 0.2616511978499845, 0.25008445946432273, 21372000000, 
-0.07098937353823273, 0.19051095443954127, 0.2500947670709352, 21377000000, 
-0.006559974770567753, 0.08327118833850512, 0.25014120230065773, 21382000000, 
-0.108979677723434, 0.24295329195520096, 0.2505974725947825, 21387000000, 
-0.00428739976157007, 0.04693259404453912, 0.25000626486872246, 21392000000, 
-0.06687557773657195, 0.17758038459464015, 0.25038385712357736, 21397000000, 
-0.13152826091197295, 0.30228992534558335, 0.25008118756667735, 21402000000, 
-0.014448478070876044, 0.10497101783987048, 0.25023967503481853, 21407000000, 
-0.07969017434004592, 0.19438257802830683, 0.25071683912398846, 21412000000, 
-0.10850589176470113, 0.25871330601607806, 0.25030440380160107, 21417000000, 
-0.0019948781585034485, 0.059931564633697136, 0.2504468523620853, 21422000000, 
-0.10999510677679745, 0.24184083732552622, 0.25039967777392297, 21427000000, 
0.013400204025789363, 0.11503646965442915, 0.24995557331092272, 21432000000, 
-0.057387299081308366, 0.15955411399834316, 0.25059717602669535, 21437000000, 
-0.09796363435857822, 0.297937536236751, 0.2502630133925174, 21442000000, 
-0.035835815954722905, 0.04007127360069683, 0.25044841828312703, 21447000000, 
-0.059642130401129104, 0.2064871062376447, 0.25015428282264485, 21452000000, 
-0.1163647933514486, 0.2693384109380218, 0.24995693623280812, 21457000000, 
-0.021920498281395532, 0.08185895767724154, 0.2501645918637001, 21462000000, 
-0.0710894902228809, 0.19870947385588955, 0.25052100284238926, 21467000000, 
-0.10997712158598513, 0.2811311376577566, 0.2502131345872967, 21472000000, 
0.02665621857609042, 0.038537380968751936, 0.2501717410663187, 21477000000, 
-0.10129119165192332, 0.19989682055163988, 0.25040296479962837, 21482000000, 
-0.11176963277459499, 0.25357947909328155, 0.25023657814273353, 21487000000, 
0.003415342633343855, 0.05638513463246389, 0.2501466273998708, 21492000000, 
-0.10115170355033781, 0.26880786845825455, 0.25046689282838536, 21497000000, 
-0.0015278119747440654, 0.07589838735681971, 0.24984467721949363, 21502000000, 
-0.04396124373550814, 0.2127890074354099, 0.2504003402959789, 21507000000, 
-0.07036719218137634, 0.18466318095669393, 0.24941067996521704, 21512000000, 
-0.042260203901147056, 0.15840147623966358, 0.25063418925685255, 21517000000, 
-0.1204327456800469, 0.2712432754313271, 0.25033941117077635, 21522000000, 
-0.0040088359286347495, 0.030340340273545676, 0.25011656703551954, 21527000000, 
-0.06762789781660247, 0.14734544406575265, 0.2502254125017923, 21532000000, 
-0.10382648433038001, 0.23952130842370506, 0.2504867312639938, 21537000000, 
-0.0047909678979715835, 0.07658490975601591, 0.2504476100824754, 21542000000, 
-0.09692278849871394, 0.19737570276732233, 0.2507755042939964, 21547000000, 
-0.04624458832945588, 0.2153593266123359, 0.25017363645187085, 21552000000, 
-0.034667701713985005, 0.17393728089705268, 0.2506214943505163, 21557000000, 
-0.08393330482296286, 0.28712994190669, 0.2501715999724415, 21562000000, 
0.004068984814931683, 0.045877070756520255, 0.2499435127883922, 21567000000, 
-0.06669449369637893, 0.19719140115019443, 0.25041485102502375, 21572000000, 
-0.0940177216941192, 0.2992092761374975, 0.2502330992584945, 21577000000, 
-0.014756663247382333, 0.06822481929198981, 0.2501664425577292, 21582000000, 
-0.07669779489411475, 0.25916804441278685, 0.2501710972909729, 21587000000, 
-0.03400651356735547, 0.07610603371091418, 0.24965773787945253, 21592000000, 
-0.07810040178919338, 0.19780897389435276, 0.2506167455034721, 21597000000, 
-0.09995307183010496, 0.272996512766767, 0.25015273243452923, 21602000000, 
-0.005714186932065105, 0.07635320126774074, 0.2501965745040231, 21607000000, 
-0.07366032571734735, 0.18824805349825458, 0.2503751443594727, 21612000000, 
-0.05046569265378599, 0.18652159130527202, 0.24987540608126915, 21617000000, 
-0.05700278090305201, 0.16162449176183846, 0.25029433910745347, 21622000000, 
-0.1265168028515516, 0.29532974778823695, 0.25001967372959405, 21627000000, 
0.005619856517369234, 0.07859013596984249, 0.25040737720224504, 21632000000, 
-0.11758854057132437, 0.30247390441666816, 0.2504059824957989, 21637000000, 
-0.03063848473136895, 0.08074128337712758, 0.250347997539453, 21642000000, 
-0.04347300552295469, 0.15143643932963394, 0.25016802489673423, 21647000000, 
-0.12596212962232015, 0.30635885363828474, 0.24986776468370697, 21653000000, 
-0.01152188246915636, 0.09331726895933991, 0.2500795372741302, 21658000000, 
-0.12585127314496874, 0.27988349202426943, 0.2502510311125355, 21663000000, 
-0.010810637319203939, 0.07115146970482013, 0.24997392780648856, 21668000000, 
-0.05178331677088644, 0.17223065281467057, 0.2501509006140831, 21673000000, 
-0.08651818105795461, 0.29502187417785924, 0.24982028371933368, 21678000000, 
-0.014823999436324741, 0.014780500191078731, 0.25020589589147907, 21683000000, 
-0.07170121855830938, 0.16721406287851184, 0.250438264972289, 21688000000, 
-0.09598797071035206, 0.17193048228237237, 0.2500751898339568, 21693000000, 
-0.045278533561842194, 0.15565211968930057, 0.25024188641007766, 21698000000, 
-0.11540100138528052, 0.2861437644074168, 0.25018141199306665, 21703000000, 
0.011555768287426691, 0.11110879165350629, 0.24981717363030845, 21708000000, 
-0.0759603200454378, 0.16349217362985058, 0.2504448033821977, 21713000000, 
-0.0844993905975946, 0.28945871604120466, 0.24982926358690166, 21718000000, 
0.0347974069492369, 0.04785947081839292, 0.25031056813666147, 21723000000, 
-0.09074295657062523, 0.2504148051613837, 0.2500289975871386, 21728000000, 
0.022592064657672932, 0.024577047004235103, 0.24979483736641891, 21733000000, 
-0.03879838530068784, 0.1523434693747115, 0.2502532140853807, 21738000000, 
-0.08523118878328238, 0.303685831763512, 0.2497835879006289, 21743000000, 
-0.033477209674360506, 0.08500362547490717, 0.25008538350077203, 21748000000, 
-0.11171429266935103, 0.2740687390120367, 0.2505504768191995, 21753000000, 
-0.04969693230386912, 0.21465411080724825, 0.2500500244510903, 21758000000, 
-0.029663664708625328, 0.054906696218668956, 0.2503447562059423, 21763000000, 
-0.12539399176184068, 0.27483784820349916, 0.2508266450670357, 21768000000, 
0.01958661416584656, 0.08060624100805994, 0.24981814223531468, 21773000000, 
-0.042682210062899247, 0.17069536029652482, 0.25074449794804365, 21778000000, 
-0.16106412161212139, 0.2841323003712135, 0.2501922088018679, 21783000000, 
-0.009346850286588701, 0.04434497332528588, 0.2502412755820477, 21788000000, 
-0.07039873836328049, 0.14091342142200747, 0.2506369419339637, 21793000000, 
-0.1130053912631578, 0.28572303323760373, 0.2499625555375038, 21798000000, 
-0.018690961875544067, 0.05605193625397561, 0.25057383871443356, 21803000000, 
-0.08944389245268461, 0.2671892855441309, 0.25060615968142513, 21808000000, 
-0.012762448655977723, 0.07508797221344629, 0.2500823483717428, 21813000000, 
-0.06659405430189796, 0.14792675932259805, 0.25032792500865664, 21818000000, 
-0.0917439827969472, 0.2753645066349898, 0.250504480972377, 21823000000, 
0.020005824875336253, 0.059338702965590864, 0.25008965808410777, 21828000000, 
-0.03581303636340498, 0.2100475539381641, 0.250826371638508, 21833000000, 
-0.06844517950853117, 0.1501484638424742, 0.25004821020887785, 21838000000, 
-0.0663647905570906, 0.17200193621635493, 0.2506311338783833, 21843000000, 
-0.154624236927272, 0.29483531863540896, 0.2504170988565769, 21848000000, 
0.00904002167478275, 0.02917240566640594, 0.2504525788617318, 21853000000, 
-0.06433453257881942, 0.21130781228600315, 0.2505525610381571, 21858000000, 
-0.08835489128457649, 0.2671513856813241, 0.2500449482445374, 21863000000, 
-0.006514763101844296, 0.06325809146130926, 0.25010603552261934, 21868000000, 
-0.13320250898168265, 0.29686726406478925, 0.25030904714648794, 21873000000, 
0.0005467378756531644, 0.08283016571307134, 0.25017409084493314, 21878000000, 
-0.03699708470246887, 0.1885328487191683, 0.25039544490930477, 21883000000, 
-0.12696122238142327, 0.3333929087087338, 0.25023202113217474, 21888000000, 
-0.004588386202747077, 0.02143240786473432, 0.25038981806479144, 21893000000, 
-0.06389959907880197, 0.15057900893760143, 0.2504443685447356, 21898000000, 
-0.06509433482881441, 0.1648271316422371, 0.24969670345054668, 21903000000, 
-0.057690181045861134, 0.158287346892467, 0.2501661190203504, 21908000000, 
-0.10193847012244661, 0.28141134408551244, 0.24999357391972732, 21913000000, 
0.01162453297541079, 0.051713260036169356, 0.2499245871950182, 21918000000, 
-0.07522196382413339, 0.18765552175451275, 0.25048068630141207, 21923000000, 
-0.11726011454315079, 0.3095579423960109, 0.2499478377843536, 21928000000, 
-0.026362805311494743, 0.04207567780613141, 0.25005177546941887, 21933000000, 
-0.05080539674296276, 0.1832180875427016, 0.25027508541434584, 21938000000, 
-0.09224772419570657, 0.28799431889297944, 0.2500324100474438, 21943000000, 
-0.010275082821927913, 0.03316732399445905, 0.2503227217344639, 21948000000, 
-0.08395127111574588, 0.2218500952663785, 0.25035454182476785, 21953000000, 
-0.1254380381198662, 0.2695232956251153, 0.25008525949930865, 21958000000, 
-0.001543075691275879, 0.047761674056147056, 0.2501336962705705, 21963000000, 
-0.038082632986355294, 0.21624598242457585, 0.25034952451007375, 21968000000, 
-0.08750097398497483, 0.2876954755619349, 0.249592473712528, 21973000000, 
-0.03359869446684642, 0.11029257849176265, 0.24999167088097005, 21978000000, 
-0.13577025271420157, 0.3186343267948077, 0.25023872213891624, 21983000000, 
0.0019845911278793225, 0.07331096263440738, 0.24994932398540973, 21988000000, 
-0.04430607455338738, 0.20530832856336245, 0.250508890057628, 21993000000, 
-0.11459815412469773, 0.3156002575042242, 0.2501667314397876, 21998000000, 
0.021373568758486703, 0.0018007725273619032, 0.2500498705843167, 22003000000, 
-0.0636376003102983, 0.16211398886710449, 0.2505564668385783, 22008000000, 
-0.11959082822379272, 0.2997319428897223, 0.2501913451307031, 22013000000, 
-0.013695396931610948, 0.10854682158193243, 0.25060515362328134, 22020000000, 
-0.14053458978756414, 0.29861976566089776, 0.24994841210989113, 22025000000, 
0.038852268502052825, -0.002993643673815949, 0.2500745348156559, 22030000000, 
-0.1289898130574671, 0.3006182712631816, 0.2504840506298394, 22035000000, 
-0.010242994988892924, 0.06176535343948665, 0.25004063608563276, 22040000000, 
-0.07762788140786238, 0.18639009774463305, 0.2507028740787708, 22045000000, 
-0.14537657691306818, 0.32414083403608523, 0.25047324522367864, 22050000000, 
0.051266290692553826, 0.03462242675880067, 0.250127704413419, 22055000000, 
-0.06266331880270032, 0.17432410585895033, 0.250277322595463, 22060000000, 
-0.12715308793211802, 0.3219609528909683, 0.2500526638807148, 22065000000, 
0.023578570213047413, 0.07609093485527339, 0.2507634557356323, 22070000000, 
-0.04319084396104508, 0.20056412250273334, 0.2507109651839688, 22075000000, 
-0.09486779075862387, 0.30999695613050965, 0.24999224020758126, 22080000000, 
0.009009791005097747, 0.029006316823840854, 0.2502560163724666, 22085000000, 
-0.07404510059521095, 0.21746474003873043, 0.25058111824362056, 22090000000, 
-0.0535197843581743, 0.15406837765813944, 0.24992251523210107, 22095000000, 
-0.05224253726945551, 0.1532941049212861, 0.25004880787241035, 22100000000, 
-0.1371368994043303, 0.3010988547685858, 0.2500289363362074, 22105000000, 
0.001699677232297464, 0.024479573571155235, 0.24965099220612183, 22110000000, 
-0.03889399269155698, 0.17592007039513494, 0.2502539302463386, 22115000000, 
-0.058343578444276914, 0.1621828458618829, 0.24981563583578237, 22120000000, 
-0.0747321046197501, 0.16812466239109225, 0.25031982789093393, 22125000000, 
-0.10615576815930042, 0.267268184565936, 0.25035570423119496, 22130000000, 
0.03444077924384363, 0.03930866116834204, 0.2501411858998356, 22135000000, 
-0.05722011959740495, 0.1728008510304301, 0.25007359705938553, 22140000000, 
-0.10720140482934869, 0.2636351273774562, 0.24963227401506363, 22145000000, 
0.04327608806368985, -0.021285678379300906, 0.25074792588933553, 22150000000, 
-0.08259206163133474, 0.20014739021589234, 0.25085512879217314, 22155000000, 
-0.06063867545610181, 0.18049764720309186, 0.25003651816222106, 22160000000, 
-0.05870608532219216, 0.1852890740274648, 0.250195241872836, 22165000000, 
-0.13539164982168267, 0.31333722175766476, 0.25020162969921506, 22170000000, 
0.0008124539723902559, 0.04119928552897763, 0.2501400948340769, 22175000000, 
-0.06797328090986565, 0.18433323706121643, 0.2505998225093411, 22180000000, 
-0.11864289293460611, 0.3163104476194395, 0.24968020442814365, 22185000000, 
0.013030615338845683, -0.012233325809302621, 0.24982870660948148, 22190000000, 
-0.10742712232440298, 0.2889008428534952, 0.24997456401955392, 22195000000, 
0.014518323465216268, 0.05236997576301097, 0.25004671456472943, 22200000000, 
-0.04113904745635237, 0.1855776261573099, 0.2503939920737763, 22205000000, 
-0.11871831052785088, 0.3222570765448358, 0.25018216932023435, 22210000000, 
0.043781012568273464, 0.0009309779159539407, 0.2500875352194812, 22215000000, 
-0.07989018080050227, 0.18989733829067468, 0.2506513131881743, 22220000000, 
-0.12467246464020883, 0.32234612058763895, 0.24991839271600938, 22225000000, 
-0.02111039826897105, 0.07054742918991876, 0.25056106235587755, 22230000000, 
-0.0426509070254165, 0.22652741271116555, 0.2508258842448514, 22235000000, 
-0.11986560519186686, 0.31000091205683855, 0.24981832734202103, 22240000000, 
0.015123574808926128, 0.04069519197675062, 0.250019016439157, 22245000000, 
-0.1385773343622755, 0.287903122001544, 0.2503109380836226, 22250000000, 
0.021957175391034776, 0.08249286832319318, 0.25008613941531904, 22255000000, 
-0.07147332078145578, 0.18757776869437673, 0.25039606918706236, 22260000000, 
-0.14957372156550247, 0.3625709524035777, 0.2499664266262178, 22265000000, 
0.0028391195173826187, 0.011389570704236539, 0.24977718882075714, 22270000000, 
-0.07017740840874014, 0.1679725405948419, 0.2506925660184248, 22276000000, 
-0.10379263954945789, 0.3105278672638023, 0.2502141653936982, 22281000000, 
0.0463069727945, 0.019368570154576135, 0.2505335199794847, 22286000000, 
-0.091147537538834, 0.2142499186214156, 0.2504257328450884, 22291000000, 
-0.10291764517783497, 0.27098091996141893, 0.25005609583355437, 22296000000, 
0.026095775912925598, 0.042796163930991706, 0.2501034356729467, 22301000000, 
-0.15042931520739553, 0.3550420459343204, 0.25015765534225337, 22306000000, 
0.024164182647831642, 0.035861839757306654, 0.24997524190030507, 22311000000, 
-0.0348343178024692, 0.1955399793524417, 0.2504264350131038, 22316000000, 
-0.12175673405222578, 0.3003914664079199, 0.24996937013641332, 22321000000, 
0.006713708526012295, 0.0490295595271243, 0.2503731818307661, 22326000000, 
-0.12904613347641264, 0.34104408706272155, 0.25015006259123646, 22331000000, 
-0.03524283616041365, 0.04823881075612674, 0.25010621734625327, 22336000000, 
-0.0776055136501722, 0.1604601595852792, 0.25038432074786815, 22341000000, 
-0.11345135618923523, 0.361558096272383, 0.25053690353722236, 22346000000, 
-0.00485471237178545, 0.009769590469970045, 0.24995383931956056, 22351000000, 
-0.08482977962609317, 0.1763764722057075, 0.2504711694021116, 22356000000, 
-0.11676032591649063, 0.3535986927389769, 0.24996386727307643, 22361000000, 
0.017711566972670116, 0.023728100735201377, 0.25007995968905466, 22366000000, 
-0.06576534567903579, 0.18506791045870455, 0.2503637558743974, 22371000000, 
-0.13557588461913803, 0.3331396061909937, 0.2501759759565978, 22376000000, 
0.018293235331314432, 0.011822179827052776, 0.2503728872147354, 22381000000, 
-0.10200283812766585, 0.2727820412968576, 0.2505148163521, 22386000000, 
-0.06323765464635414, 0.21083025168686034, 0.24993532268212734, 22391000000, 
0.009656031349955256, -0.00977616480237781, 0.25011782599774224, 22396000000, 
-0.13068200859345863, 0.3087990384583715, 0.250471828347489, 22401000000, 
-0.001575395945544914, 0.051020508383150955, 0.25012021922854466, 22406000000, 
-0.058369828269642175, 0.21353331322901184, 0.250151320638897, 22411000000, 
-0.11181197828527376, 0.28361207450901776, 0.24975811154917735, 22416000000, 
0.05486359591171448, 0.025591693803648743, 0.25046216253250514, 22421000000, 
-0.042880454765999235, 0.19804320522715993, 0.25065740876973946, 22426000000, 
-0.0984564954767704, 0.17488185521160968, 0.24992766957159018, 22431000000, 
-0.05278304446884725, 0.1421982345964947, 0.250551827711612, 22436000000, 
-0.10981427220118115, 0.3210707190780133, 0.2505796863760256, 22441000000, 
-0.018126681630488455, 0.03692326501589993, 0.24995131548647923, 22446000000, 
-0.05618813226495516, 0.20330073167887747, 0.2501669765443898, 22451000000, 
-0.1294326597873213, 0.34016535115672286, 0.25026834995029784, 22456000000, 
0.006300485666367302, 0.003933925069169465, 0.2505778069591117, 22461000000, 
-0.08918161688265108, 0.19348470430052675, 0.2509192846874985, 22466000000, 
-0.04411211530139707, 0.15837382928952648, 0.2500429643204257, 22471000000, 
-0.05693820186411849, 0.18100659987864917, 0.250782329040072, 22476000000, 
-0.12324376834726886, 0.3729248165208926, 0.2500738147917905, 22481000000, 
0.010483109728704, 0.05171131423599999, 0.250103899347961, 22486000000, 
-0.034455939814389595, 0.1910781184481538, 0.25029326142636976, 22491000000, 
-0.17093775934289007, 0.4314171165221211, 0.25025521540391915, 22496000000, 
0.008341164560504112, 0.04263000292978935, 0.25008517558400123, 22501000000, 
-0.1079612141372471, 0.30315362922721695, 0.2503459944786458, 22506000000, 
-0.00897125270886125, 0.035896975572560705, 0.2498669055035864, 22511000000, 
-0.06157064344809631, 0.16267395547350297, 0.25021552921105583, 22516000000, 
-0.1045468636957325, 0.31919547234861606, 0.2501268788051087, 22521000000, 
-0.01236284751910314, 0.028550136915789476, 0.25014194098223186, 22526000000, 
-0.06966432702771559, 0.18638762654811794, 0.25020132619772684, 22531000000, 
-0.12351758753522352, 0.33719501353028913, 0.25003563439073795, 22536000000, 
0.04967949698246691, 0.0011787519300537732, 0.25018372464185135, 22541000000, 
-0.07841249507420087, 0.21591066707792309, 0.250470415867113, 22546000000, 
-0.11057411261527274, 0.3511959906592039, 0.2501222580012078, 22551000000, 
0.016221106943648537, 0.007807989112295342, 0.2500893817306788, 22556000000, 
-0.023474230650152472, 0.18127847452887288, 0.2502020358059623, 22561000000, 
-0.12370757552381008, 0.34735568036377895, 0.25007504265628283, 22566000000, 
0.024822500258199015, 0.029360729394284753, 0.2498211367633171, 22571000000, 
-0.0740290530840772, 0.19416298224273715, 0.25057880989357123, 22576000000, 
-0.13489299213408848, 0.330887543930845, 0.24971085569536855, 22581000000, 
0.004209070192938083, 0.041389492929093954, 0.2503629997338732, 22586000000, 
-0.1123607187942614, 0.31952462380321195, 0.2502070816929032, 22591000000, 
-0.021585397208752764, 0.03793538275135974, 0.2500035779904633, 22596000000, 
-0.07320121007395805, 0.17335086343656683, 0.2500701826400528, 22601000000, 
-0.12704294399272678, 0.3283909753299261, 0.25033108170954105, 22606000000, 
0.003941612424227103, 0.042022884104828254, 0.2505233008279897, 22611000000, 
-0.057107653593731815, 0.19508217179545237, 0.2506097170394084, 22616000000, 
-0.1318351377762832, 0.30106610912725185, 0.25007959043257116, 22621000000, 
0.04318659830718558, -0.04442859371044194, 0.2501154285952065, 22626000000, 
-0.0708698056237768, 0.16452735128464496, 0.25051938154335035, 22631000000, 
-0.1127241630429803, 0.3253307121276786, 0.25020269435153036, 22636000000, 
0.009061247495490794, 0.003472342930314902, 0.24949871617021582, 22641000000, 
-0.051370613205461844, 0.19099767221207758, 0.2503320096808631, 22646000000, 
-0.14665746110758443, 0.33174115417667915, 0.24970759285426578, 22651000000, 
0.004893894351548539, -0.011762357612304326, 0.25031737090895173, 22656000000, 
-0.12328741144478406, 0.30239060424278186, 0.2509249126900735, 22661000000, 
0.017262920430444136, 0.05614733607670766, 0.2498179018096033, 22666000000, 
-0.05546185232387386, 0.15437394639139967, 0.25074311044914466, 22671000000, 
-0.1235340283175952, 0.32155357268331763, 0.25021537161571766, 22676000000, 
0.021816294149485035, -0.027369906661952177, 0.24999200807753424, 22681000000, 
-0.07304845804623991, 0.19737570643728325, 0.25080150528014866, 22686000000, 
-0.11960751069226815, 0.33483041295537935, 0.24989794168682347, 22691000000, 
-0.005124337593030669, 0.014552899028097546, 0.25006734747351983, 22696000000, 
-0.0612117131492675, 0.21610250083468574, 0.25054723993660133, 22701000000, 
-0.11628556269359631, 0.3400248784495301, 0.2497846958410883, 22706000000, 
0.05442624198469237, 0.00710451236061648, 0.2505516943929288, 22711000000, 
-0.07952425372801109, 0.19949962423057233, 0.2504675416571969, 22716000000, 
-0.12815718280459207, 0.3319740835724863, 0.25008246544742757, 22721000000, 
-0.016488690504121908, 0.04629933360358062, 0.25014582542613284, 22727000000, 
-0.10224279229206323, 0.3282701967632634, 0.24983447832502595, 22732000000, 
0.051804613791603144, -0.06904929382860779, 0.25038795064966063, 22737000000, 
-0.06875989261087108, 0.1943404470738022, 0.25058464835076916, 22742000000, 
-0.0803661538452736, 0.18305484875611377, 0.2500572763622273, 22747000000, 
-0.056806132282727184, 0.1310989810402969, 0.25030936608032517, 22752000000, 
-0.0873770678196323, 0.37428356274828056, 0.2502478946476425, 22757000000, 
0.03928629122779356, -0.023837703531363618, 0.25034374423210737, 22762000000, 
-0.04717628726730824, 0.19005075918557673, 0.25094169921151793, 22767000000, 
-0.11818759289694489, 0.32294579054892686, 0.24972834181567183, 22772000000, 
0.002479267262910419, -0.005541249276093658, 0.2502543439762129, 22777000000, 
-0.12704933177581834, 0.3335499211526287, 0.25081281805547484, 22782000000, 
0.029520023780681654, -0.0021958684657393847, 0.2502341411773044, 22787000000, 
-0.06906574983817544, 0.19709081140701074, 0.25079391748318014, 22792000000, 
-0.11130780535058062, 0.3975239648271009, 0.2501658114045172, 22797000000, 
-0.018179154463883348, 0.07899545862742749, 0.25031542964189446, 22804000000, 
-0.10250176709180042, 0.3174419442837349, 0.25008260790855114, 22809000000, 
0.02006940099438284, -0.013657812245428216, 0.25007161408555506, 22814000000, 
-0.0765258205122551, 0.20104336896323408, 0.25025433806735914, 22819000000, 
-0.10756742642859568, 0.35864757231753513, 0.24982687184231642, 22824000000, 
-0.004390192970564781, 0.019340230054040182, 0.25036658592894473, 22829000000, 
-0.09540746291393795, 0.33125514605354583, 0.25012473564067716, 22834000000, 
0.009091126986196692, 0.013013740722850352, 0.25004424989099117, 22839000000, 
-0.07579769887678242, 0.1794310205707065, 0.25081629100702413, 22844000000, 
-0.03770066348963142, 0.1752191618426568, 0.2500714062336816, 22849000000, 
-0.025378878603092986, 0.18131473327284234, 0.24995913921858723, 22854000000, 
-0.08535991315198567, 0.1948994452667478, 0.2501368550820262, 22860000000, 
-0.06891013776792503, 0.1752752740236475, 0.2505429524381519, 22865000000, 
-0.13985108199427823, 0.3406777870163487, 0.25041983343595975, 22870000000, 
0.03323125111846188, 0.028955613680132317, 0.24972407662970214, 22875000000, 
-0.06369337232219231, 0.18684590783053173, 0.25035119907645526, 22880000000, 
-0.14157617709939566, 0.3611847081662015, 0.25009320457712897, 22885000000, 
0.022189206748242322, 0.00869945975762364, 0.2502576340352369, 22890000000, 
-0.0557802102847497, 0.20067195921978595, 0.2505514348593321, 22895000000, 
-0.13226478897874988, 0.3488993107548732, 0.2498917656633542, 22900000000, 
0.0011536572284679015, 0.00927118886408556, 0.24991318394807865, 22905000000, 
-0.08079686380688603, 0.3365947660600604, 0.2504127746679773, 22910000000, 
0.009077438248677605, 0.041864457819174375, 0.24996999497533423, 22915000000, 
-0.05418441544033001, 0.1614131210966969, 0.2502472549502471, 22920000000, 
-0.02919936657430977, 0.17668956536340852, 0.2494786778730124, 22928000000, 
-0.05164889563406451, 0.2351823612285244, 0.25053418000877686, 22935000000, 
-0.09982487995347461, 0.3259665267339735, 0.24987864655881906, 22940000000, 
0.00649023561086211, -0.005412267890854103, 0.2504065969777658, 22945000000, 
-0.1153909260712741, 0.3325102701062006, 0.2502329122286751, 22950000000, 
-0.0012884758661581772, -0.029703137998866327, 0.2503046427400686, 22955000000, 
-0.05006090833383325, 0.1777750104251182, 0.25087094515261654, 22960000000, 
-0.11092040967251274, 0.3722619884849243, 0.2502888333539127, 22965000000, 
0.002950500313473379, -0.025821743805564693, 0.2499669853144592, 22970000000, 
-0.07167084647244401, 0.14982033888932075, 0.2508775777956014, 22975000000, 
-0.13700559873996565, 0.3663715676004237, 0.2501990588540106, 22980000000, 
-0.011202408205057968, -0.03200585389616332, 0.25057096938662177, 22985000000, 
-0.07626116200520212, 0.21536614663025655, 0.25083900083893806, 22990000000, 
-0.10830910853238129, 0.34430681163070864, 0.24952095411402828, 22995000000, 
-0.008050883578595978, -0.029817768907549495, 0.2499752179509807, 23000000000, 
-0.07593147203255043, 0.1893744021508508, 0.25084657849899694, 23005000000, 
-0.05298115221093582, 0.17675701379798459, 0.2499051731593419, 23010000000, 
-0.028860415642947654, 0.1418910922280216, 0.250585250653676, 23015000000, 
-0.1212273708963553, 0.37507529572897014, 0.25037054723618785, 23020000000, 
-0.00858253253743077, -0.03291509522483917, 0.250237842494503, 23025000000, 
-0.048675793614642034, 0.20835156191198273, 0.2505562102304947, 23030000000, 
-0.07446080915954068, 0.2060863437619119, 0.25030521221036306, 23035000000, 
-0.06114097265567757, 0.1553565025032708, 0.25029757261380464, 23040000000, 
-0.1309038199993194, 0.3451935106283252, 0.2504221096642951, 23045000000, 
0.01680561171146002, -0.031093177631559832, 0.2499342089705328, 23050000000, 
-0.0932912662254382, 0.19542813980036575, 0.25057834596701895, 23055000000, 
-0.07009986758454309, 0.18995812861219655, 0.25011864874815987, 23060000000, 
-0.07112308186466007, 0.15156756075622302, 0.24994515428312167, 23065000000, 
-0.10559089903095058, 0.32545199109932677, 0.2503163533972104, 23070000000, 
0.05791606236126347, -0.13396387638986845, 0.249804131777001, 23075000000, 
-0.07978159349359583, 0.1856674306792181, 0.2504485309222518, 23080000000, 
-0.1232127136026069, 0.37198467756471104, 0.24981424008923514, 23085000000, 
0.016760323490037386, 0.037885561144493665, 0.2502634323206608, 23090000000, 
-0.03797711292861666, 0.2239895132054594, 0.2506937671421212, 23095000000, 
-0.08833647112973049, 0.19742237345040575, 0.2499731477569552, 23100000000, 
-0.08079268792081278, 0.14425366361095274, 0.2504598024411962, 23105000000, 
-0.10777422533038258, 0.36156950134509397, 0.2504142636413709, 23110000000, 
0.03408075801936672, 0.002839975997352473, 0.2500477408613494, 23115000000, 
-0.05819520929324289, 0.1812321552453854, 0.25088094849380527, 23120000000, 
-0.05341748733755956, 0.194534136794834, 0.2501232604675392, 23125000000, 
-0.07046136358225662, 0.17339091401093398, 0.250480561493865, 23130000000, 
-0.07948383128093142, 0.34295250602893323, 0.2503598170956203, 23135000000, 
-0.02857542287945212, 0.035627694025108084, 0.2503040964286591, 23140000000, 
-0.04841103211003701, 0.13773757908047585, 0.25014410625084527, 23145000000, 
-0.08434320080088578, 0.3818622684815552, 0.2500347332779967, 23150000000, 
-0.012712615139427643, 0.016267528928543367, 0.2500974401912839, 23155000000, 
-0.07268494070614819, 0.18547642874391435, 0.25044283363018827, 23160000000, 
-0.14458247442383565, 0.3732620256552832, 0.24992128753934273, 23165000000, 
0.043039132299176074, -0.0016682754329357327, 0.2502066249535374, 23170000000, 
-0.06713871208518114, 0.189244596105529, 0.25055043807136146, 23175000000, 
-0.11372286872539594, 0.34980760928614485, 0.2503500680702558, 23180000000, 
-0.04406422607575602, 0.018739125006284843, 0.25049795892968846, 23185000000, 
-0.032969615036788885, 0.17573837414857157, 0.250776946373008, 23190000000, 
-0.09195744097813172, 0.3572905286875869, 0.24996789197664093, 23195000000, 
0.005881377779890256, -0.018288899372654766, 0.2503231112585299, 23200000000, 
-0.0975208402473824, 0.35040989380375287, 0.2503031659093725, 23205000000, 
0.004610543736017521, 0.03223175484945253, 0.250216226129885, 23210000000, 
-0.05381872483819248, 0.17523154951507577, 0.2505551473206277, 23215000000, 
-0.1099307324161317, 0.3806311823900522, 0.25044070838930477, 23220000000, 
0.01821890057391263, -0.021203449860135296, 0.250386060249892, 23225000000, 
-0.07164803121281535, 0.21173700724209193, 0.2506429563784265, 23230000000, 
-0.08657922551043304, 0.3593578117759093, 0.25011032514036985, 23235000000, 
0.016161304723842015, -0.03110261723126617, 0.24995013343556488, 23240000000, 
-0.08715574429396077, 0.19661214698793922, 0.25060727603654726, 23245000000, 
-0.13376509805125758, 0.3600017309361885, 0.2501274702929185, 23250000000, 
-0.019135322871140312, -0.042749286881984545, 0.2499621384034323, 23255000000, 
-0.07988919363801106, 0.21974511142913633, 0.25070489826514214, 23260000000, 
-0.10483158141884166, 0.33696694139940353, 0.2494569440209756, 23265000000, 
0.0019217976542248516, -0.023821443877225505, 0.25014608694999496, 23270000000, 
-0.09257466112613655, 0.352337837254309, 0.25016518268447296, 23275000000, 
-0.0012446858986733694, 0.012624666749795309, 0.24971885277458233, 23280000000, 
-0.055969786552841475, 0.17229007957431902, 0.2501268315303112, 23285000000, 
-0.0921875026771987, 0.35977647912236566, 0.2504532093649788, 23290000000, 
0.005141095852491418, -0.03490863644034763, 0.2502487859188452, 23295000000, 
-0.05708028880888074, 0.171162913945714, 0.2502056181102336, 23300000000, 
-0.0971522055160082, 0.37650547333642365, 0.25033576300708144, 23305000000, 
-0.022613909951682658, -0.014288035084601393, 0.25031483801563453, 23310000000, 
-0.103723612835333, 0.18747973476714422, 0.2506595235258993, 23315000000, 
-0.11376177387384234, 0.3287668557129436, 0.2501234555693325, 23320000000, 
-0.03311651820729164, 0.011132184564392893, 0.25017942122867487, 23325000000, 
-0.078121658009802, 0.39673078891700986, 0.25061889445160374, 23330000000, 
0.00776869947886415, -0.020134027509366173, 0.24993119312281606, 23335000000, 
-0.07452394022311852, 0.21504655436530357, 0.25112511705008245, 23340000000, 
-0.07500059384212282, 0.4034938394583384, 0.25034580137785667, 23345000000, 
-0.0017726022205064446, -0.03177505496800263, 0.250760974656144, 23350000000, 
-0.038603696024347864, 0.18094752220470806, 0.2511820452492126, 23355000000, 
-0.05280606353242574, 0.15956260192283372, 0.2503661299431356, 23360000000, 
-0.05336653925234162, 0.20922879723691126, 0.2508410250784815, 23365000000, 
-0.08594727794518989, 0.383103422906971, 0.2505027667937571, 23370000000, 
-0.010346337059398528, -0.022596351825909404, 0.2504941488552792, 23375000000, 
-0.0543324318904416, 0.19128337927702938, 0.2504310311125676, 23380000000, 
-0.05188125742033089, 0.1684391933642881, 0.2503730586641012, 23385000000, 
-0.06976941517135131, 0.16889461696370328, 0.25041369559994914, 23390000000, 
-0.06037907714287325, 0.34499632214741044, 0.25003934423522106, 23395000000, 
0.026171668093245493, -0.06740403351369165, 0.24996299741984856, 23400000000, 
-0.08252571224726656, 0.22176156582838258, 0.25031572530879403, 23405000000, 
-0.05632622213220901, 0.3364018192390072, 0.2498971310533744, 23410000000, 
0.013248495553177874, -0.018045949132456045, 0.2501018932415404, 23415000000, 
-0.09603995210466053, 0.35001175828596454, 0.2504760796582807, 23421000000, 
-0.030872030989589138, 0.03485240676922563, 0.25015377571509917, 23426000000, 
-0.06382693273609297, 0.19032670184811148, 0.25021959613879075, 23431000000, 
-0.09882514067394288, 0.4045279586574698, 0.249974413389421, 23436000000, 
-0.01976527508647338, -0.04066307504112396, 0.25043418156798947, 23441000000, 
-0.044728719183804416, 0.203167410077367, 0.25087446950407566, 23446000000, 
-0.05740810419679796, 0.3438829072024771, 0.2498425455402055, 23451000000, 
-0.030091961523798234, -0.013583031146819772, 0.25057069371027674, 23456000000, 
-0.06824475249062666, 0.3591517725428977, 0.25020216432278136, 23461000000, 
-0.026621562052906677, 0.013101012210892453, 0.24993038104348242, 23466000000, 
-0.07069189967238423, 0.18572127820529133, 0.25055384638284023, 23471000000, 
-0.07789482054106525, 0.32854816173799106, 0.25024942308582904, 23476000000, 
0.03101722653046393, -0.023471691676543817, 0.24974271779970533, 23481000000, 
-0.07421405542033754, 0.2189951380383509, 0.2506126124129163, 23486000000, 
-0.10464223685146914, 0.34639442129056935, 0.2503331859288614, 23491000000, 
0.03257663324021839, -0.029834928508497255, 0.24980077855560587, 23496000000, 
-0.034558997491637454, 0.17710197071789213, 0.2506186926339567, 23501000000, 
-0.08155223989552252, 0.3293586056502897, 0.25023856268546907, 23506000000, 
-0.03849208476362125, -0.009013971988154438, 0.2500195850687337, 23511000000, 
-0.07124555485912176, 0.19413967619553044, 0.25071958184532406, 23516000000, 
-0.062355733326307866, 0.31012642529196527, 0.24982418292051983, 23521000000, 
-0.035849761712363655, 0.00917405712877823, 0.2504702233999951, 23526000000, 
-0.10652826138018587, 0.32856597248024433, 0.25037984681225345, 23531000000, 
-0.036910726466668514, 0.0533281787569249, 0.25032912556750203, 23536000000, 
-0.0791619520618803, 0.2079303845904756, 0.2501165388322906, 23541000000, 
-0.07543727831065954, 0.31289553947230514, 0.25017377782124756, 23546000000, 
-0.019820694964473178, -0.09037523720914581, 0.2498770614899193, 23551000000, 
-0.08211470764273095, 0.20582605574979454, 0.25043051234523184, 23556000000, 
-0.08005694610102998, 0.3528475672622484, 0.250168439803497, 23561000000, 
-0.005083561870359257, -0.0002343291347218293, 0.24982011439610463, 23566000000, 
-0.07415220642319102, 0.19931074371528523, 0.250341101797256, 23571000000, 
-0.043827868688538704, 0.1837206276709077, 0.25030520614688573, 23576000000, 
-0.07190501228783992, 0.19294870089991814, 0.2502895016330786, 23581000000, 
-0.08401300777992661, 0.37959827033203697, 0.25057718787489247, 23586000000, 
-0.015595657198433525, -0.007998245183661068, 0.25046063279224384, 23591000000, 
-0.07701412020677635, 0.20200581277047577, 0.2507905882482723, 23596000000, 
-0.06559419216083756, 0.3124149386129143, 0.25013470102969787, 23601000000, 
-0.0517312169804199, 0.0587197809814284, 0.2508644812756577, 23606000000, 
-0.06838122279939549, 0.3602394746298608, 0.25063535643969864, 23611000000, 
-0.04621474449162045, 0.00793884710823893, 0.2503710515643676, 23617000000, 
-0.051039382641199046, 0.21219748152684528, 0.25079359845199606, 23622000000, 
-0.07479277702348631, 0.3487451728238558, 0.25022903685387954, 23627000000, 
-0.045875738560715175, 0.01464256000378804, 0.2503554831200212, 23632000000, 
-0.052029131945290436, 0.3284460193564041, 0.2504582772665489, 23637000000, 
-0.019616224729434424, 0.03229858344591731, 0.2496378822879126, 23643000000, 
-0.07995038404250683, 0.18909968548895864, 0.2503426752078229, 23648000000, 
-0.059967962357450576, 0.19287374887837014, 0.2501375209983863, 23653000000, 
-0.061329755460011334, 0.18627873434759293, 0.25075153673949463, 23658000000, 
-0.04464181754391962, 0.20179495953579252, 0.2503855312605307, 23663000000, 
-0.04779689330332301, 0.174288263672482, 0.2497794905326036, 23668000000, 
-0.05753483405727288, 0.2003962267209571, 0.25034697289252167, 23673000000, 
-0.04325523269480478, 0.17974813957028232, 0.24994310276450865, 23683000000, 
-0.08367701426205876, 0.19354952392584615, 0.2503242706070829, 23688000000, 
-0.07383413784583723, 0.1798425267325249, 0.25002622894197757, 23693000000, 
-0.08637314110332747, 0.16838031232280015, 0.25062448153276645, 23698000000, 
-0.09886694861159256, 0.39528923295466284, 0.25034686558340974, 23703000000, 
-0.04065014120531089, -0.029797681856416097, 0.2499463000958873, 23708000000, 
-0.049833174403310754, 0.20113954856787816, 0.25064907201684333, 23713000000, 
-0.04725250162321705, 0.34595547356388584, 0.2498486514003643, 23718000000, 
-0.0395162905440174, 0.04469445055156923, 0.2500654765265208, 23723000000, 
-0.0671448503883834, 0.20580644896565692, 0.25047381868550256, 23728000000, 
-0.07565118386131868, 0.35617223518441354, 0.24997862657152858, 23733000000, 
-0.02303855607339109, 0.013321179695576587, 0.25029118438684966, 23738000000, 
-0.04910972895923295, 0.200435499884914, 0.2504856953516799, 23743000000, 
-0.06870796245694703, 0.32025054001268216, 0.25007255048685023, 23748000000, 
-0.033951021185478686, 0.021192907212492902, 0.2502036315243361, 23753000000, 
-0.06636334628862937, 0.3146823838897118, 0.2505364510917927, 23758000000, 
-0.06380202373366692, 0.022231657518713442, 0.2500168837305433, 23763000000, 
-0.062488165272054336, 0.2277021325214661, 0.2507120856287017, 23768000000, 
-0.08678229838143313, 0.3485914470106546, 0.2506088792980501, 23773000000, 
-0.05310835211839875, 0.01870470060475628, 0.24982340922013235, 23778000000, 
-0.06618172814214797, 0.19176166912458498, 0.2503337318995722, 23783000000, 
-0.07500280852931139, 0.32676244437172497, 0.2501719775553244, 23788000000, 
-0.0210538917952479, 0.016726006044569818, 0.2504861602101437, 23793000000, 
-0.07246157897343751, 0.32094391480072887, 0.250375227024208, 23798000000, 
-0.02140682903261496, 0.0229305419339817, 0.25068474644932215, 23803000000, 
-0.05581397463849193, 0.1873652258356913, 0.2506706819506768, 23808000000, 
-0.04445804012321242, 0.16173586988658498, 0.25032561574101125, 23813000000, 
-0.07152452933734149, 0.1631565857445607, 0.25090896497475673, 23819000000, 
-0.02720375568827297, 0.38504475136344113, 0.2505939896980392, 23824000000, 
-0.05474541261527055, 0.041152546773503634, 0.25045382375961817, 23829000000, 
-0.05588888104793015, 0.18757986920383904, 0.25055402744271155, 23834000000, 
-0.05266764610426009, 0.30166961339251863, 0.24990815870571564, 23839000000, 
-0.05420125815156535, -0.003830050266396899, 0.25070407738648287, 23844000000, 
-0.04354001792004833, 0.20844596247272584, 0.2500844662920335, 23849000000, 
-0.04323434103879797, 0.33541929411584265, 0.2500935424764587, 23854000000, 
-0.04246280313592075, 0.03543385784829007, 0.24997515717642121, 23859000000, 
-0.03576279937537927, 0.1441308655770825, 0.2505845373821302, 23864000000, 
-0.033047294095099586, 0.3290055661945309, 0.24968969784335873, 23869000000, 
-0.04234314327856131, 0.035775950071365206, 0.2505539251265396, 23874000000, 
-0.05178062089549067, 0.18826672173665449, 0.25059102676660094, 23879000000, 
-0.035484990239463894, 0.16876188345250426, 0.25025116839453565, 23884000000, 
-0.0645572657221201, 0.14273174873952602, 0.25014511713718846, 23889000000, 
-0.0485802456061664, 0.3188018428627827, 0.2502471031844288, 23894000000, 
-0.054948472565574495, 0.0027674520969685765, 0.25037688906941163, 23899000000, 
-0.060034346372979004, 0.2096900820140415, 0.2506698592252345, 23904000000, 
-0.036606300937206036, 0.3157192261751004, 0.24975295223386004, 23909000000, 
-0.02896879438686953, 0.015382147780169279, 0.25079101214011795, 23914000000, 
-0.07368795180451522, 0.3183218136072378, 0.25046947775023426, 23919000000, 
-0.05193111109890117, 0.039649075988020144, 0.25026880017942055, 23924000000, 
-0.07092925442395664, 0.19800711346184482, 0.250176430186729, 23929000000, 
-0.03888912660596308, 0.3479368274483124, 0.25009668054410683, 23934000000, 
-0.07153620463745705, 0.0332772960799962, 0.2503768698064541, 23939000000, 
-0.037159392017050055, 0.23064147349339387, 0.25052505438340994, 23944000000, 
-0.05696604880084197, 0.16378463872139912, 0.2502724008822883, 23949000000, 
-0.044513774210615045, 0.17579580603014475, 0.25026029948850176, 23954000000, 
-0.05322171315154101, 0.3137653584650834, 0.25058739455728707, 23959000000, 
-0.07148555754073965, 0.03703580957345597, 0.25036454176515505, 23964000000, 
-0.016033720911336473, 0.19537887147191177, 0.2513072773988868, 23969000000, 
-0.06288526451408874, 0.3104646852223856, 0.25104498025422545, 23974000000, 
-0.0752697150810324, 0.033239525812486376, 0.2513207531082478, 23979000000, 
-0.04873985367421122, 0.17517516025046226, 0.2518142267516487, 23984000000, 
-0.06585643553457007, 0.3426319259813105, 0.251379703008392, 23989000000, 
-0.07105360068140114, 0.0027377373396668264, 0.25196012052316885, 23994000000, 
-0.05131789716478182, 0.3466408824951871, 0.2516625690302093, 23999000000, 
-0.015691783680846477, 0.011967723226357401, 0.2514630936890737, 24004000000, 
-0.07205292129966569, 0.2171986874980454, 0.25168389895290316, 24009000000, 
-0.010621124671272346, 0.32099565587321555, 0.2511915657564849, 24014000000, 
-0.06317590831735127, 0.0421579233662644, 0.25061484123147343, 24019000000, 
-0.07514538868306053, 0.18995486983689697, 0.2506409854503713, 24024000000, 
-0.0537630367820146, 0.18723233688355428, 0.25041598310198065, 24029000000, 
-0.07086511710021591, 0.1547356163218187, 0.250085106692216, 24034000000, 
-0.04781784562334096, 0.30536201000318514, 0.24964243981193224, 24039000000, 
-0.10066281293545831, 0.017668934825664954, 0.24932243409577098, 24044000000, 
-0.07425508702288922, 0.29692820761089156, 0.24923366338229008, 24049000000, 
-0.06157501145284718, -0.005817976047511542, 0.24898382150151344, 24054000000, 
-0.04220864722088141, 0.18098641501228657, 0.24961721459677502, 24059000000, 
-0.011932602487509294, 0.30905613805982657, 0.2492790568975278, 24064000000, 
-0.06439162279811995, 0.046063185180149374, 0.24983011875757516, 24069000000, 
-0.04672001261655772, 0.1666880726344859, 0.2503152912590823, 24074000000, 
-0.06514745820320025, 0.32535525571772506, 0.24917407544342515, 24079000000, 
-0.0729685566823791, 0.04543842318061163, 0.25009315857641035, 24084000000, 
-0.06432176157144752, 0.3103045965489284, 0.25024306411980285, 24089000000, 
-0.08315293670248977, 0.05242908443278294, 0.24997996060704883, 24094000000, 
-0.06255488898897538, 0.16892342310921782, 0.25076039103914527, 24099000000, 
-0.04037212810445135, 0.3041215529618973, 0.2506351959856346, 24104000000, 
-0.047490694494331895, 0.06688940959055131, 0.25082732138834424, 24111000000, 
-0.03673270738878307, 0.30770284091159344, 0.25102377401790105, 24116000000, 
-0.05603329723738641, 0.1745616390814244, 0.25046013096129177, 24121000000, 
-0.08269336746264194, 0.056588536364934494, 0.2507609992921083, 24126000000, 
-0.0586990212619809, 0.3183354905067674, 0.2506068312218428, 24131000000, 
-0.06860325074251662, 0.03957884367127807, 0.25065892456998184, 24136000000, 
-0.09026672256215085, 0.18946788912348553, 0.25091962984713895, 24141000000, 
-0.020804398586109225, 0.32080357724110464, 0.24989904592924878, 24146000000, 
-0.05755915761782484, 0.054659438953815594, 0.2500175118340859, 24151000000, 
-0.05330061399415706, 0.32121409462544204, 0.25041625055561856, 24156000000, 
-0.07462367472873013, 0.060683248435843856, 0.25010119967304595, 24161000000, 
-0.04073137030408418, 0.21453850324140325, 0.2500233198719468, 24166000000, 
-0.005218414672505469, 0.28764985308402147, 0.25021574911587235, 24171000000, 
-0.07472676919370551, 0.05342193437868607, 0.24996160052710792, 24176000000, 
-0.06513752126441193, 0.19689337664271025, 0.25048528698203154, 24181000000, 
-0.06209370244302441, 0.1452826487862312, 0.2499854093997897, 24186000000, 
-0.06259625052883656, 0.17270170316782713, 0.25021628528624934, 24191000000, 
-0.07097799555751122, 0.297718853438046, 0.2504425357391293, 24196000000, 
-0.08018813343852634, 0.0618335664090867, 0.25008513382596503, 24201000000, 
-0.03477272225206818, 0.18356680411678164, 0.2511364038303642, 24206000000, 
-0.0261973540449383, 0.2783575372985392, 0.2510093328585939, 24211000000, 
-0.0876905902243518, 0.03357006143868135, 0.2513003731628103, 24216000000, 
-0.048341445894998704, 0.21757441306665315, 0.2520978451359855, 24221000000, 
-0.07811576437221505, 0.25591219261335596, 0.25178427985902857, 24227000000, 
-0.07839206551785911, 0.06498494959919246, 0.25227144925647266, 24232000000, 
-0.031790454354736694, 0.25708056647254107, 0.25214512342920653, 24239000000, 
-0.07607621965040805, 0.016910818562643884, 0.25276756256517396, 24244000000, 
-0.0551383347033924, 0.20188595902983805, 0.25282698310398233, 24249000000, 
-0.05035324293532025, 0.2733415163951479, 0.25224716065775543, 24254000000, 
-0.046877510877545374, 0.044812521836803836, 0.2523081889998552, 24259000000, 
-0.04465774103690606, 0.19270030995276247, 0.25261628056841623, 24264000000, 
-0.07740731313023054, 0.2914586061846588, 0.251676560591661, 24269000000, 
-0.02926318935269216, 0.057030744112504285, 0.25212021775187204, 24274000000, 
-0.04272648094988552, 0.28662294077573724, 0.25168588108762513, 24279000000, 
-0.06614599071601686, 0.06651131641960842, 0.2509758017003146, 24284000000, 
-0.04238255304310405, 0.2018873905660537, 0.25102182978485293, 24289000000, 
-0.027186342831992116, 0.33196656399787783, 0.2502140801260105, 24294000000, 
-0.09443393535494726, 0.05623254848061983, 0.25007783048213195, 24299000000, 
-0.05517837798200743, 0.22026500893336684, 0.25005438255513396, 24304000000, 
-0.04826484618238587, 0.19272412011282528, 0.24922196879206499, 24309000000, 
-0.05409358926911061, 0.1532596683704367, 0.24928524039038552, 24314000000, 
-0.008742858128107604, 0.2989668354619705, 0.24912763292715406, 24319000000, 
-0.09347105619226051, 0.01923384061570249, 0.24884371924289503, 24324000000, 
-0.05675871094263507, 0.21422168399512154, 0.24916046075673687, 24329000000, 
-0.036640648850066716, 0.3025668993846625, 0.2493021441461984, 24334000000, 
-0.10593617808576322, 0.011898223950826679, 0.24915687149991367, 24339000000, 
-0.05770988843772208, 0.1952738242443258, 0.24982657423876714, 24344000000, 
-0.04333218907749656, 0.29900943029760185, 0.2496709158013896, 24349000000, 
-0.1011449386794666, 0.06579780172728858, 0.2500651411574467, 24354000000, 
-0.03347755229069218, 0.320321943804088, 0.25065879044388123, 24359000000, 
-0.07383948414414558, 0.07186477112016071, 0.2503178293247497, 24364000000, 
-0.055271031002694246, 0.17305525250778073, 0.25093901188359463, 24369000000, 
-0.03811813008676163, 0.28613879054365526, 0.2505503916434374, 24374000000, 
-0.121165048548486, 0.08315339338105898, 0.251038501760568, 24379000000, 
-0.028121817805160963, 0.3130239900517957, 0.25128391543607165, 24384000000, 
-0.1100696329439666, 0.03720362872275318, 0.2508588878129215, 24389000000, 
-0.07417258299830637, 0.19045253349908936, 0.2513039454636372, 24394000000, 
-0.05449658981475137, 0.1766531922083366, 0.25086103027842166, 24399000000, 
-0.07092519815545716, 0.2123969514382358, 0.25108500271173356, 24404000000, 
-0.04456123341310776, 0.3105504573574074, 0.25053991260549685, 24409000000, 
-0.10299826763599845, 0.029036040000779743, 0.2506076920965384, 24414000000, 
-0.04822648489651891, 0.17901051383625002, 0.2507787713236159, 24419000000, 
-0.04626341177726986, 0.13859196849531502, 0.25003412540847836, 24424000000, 
-0.07154060033008228, 0.19551033726025274, 0.25012174074997995, 24429000000, 
-0.05270058102277533, 0.16918841649675115, 0.25019302022666473, 24434000000, 
-0.0060870565071607236, 0.28473492126852346, 0.24966503191277595, 24439000000, 
-0.0970660919389292, 0.06961215350067256, 0.2501408672509995, 24444000000, 
-0.05194107199446554, 0.16648554224821172, 0.25007788086249755, 24449000000, 
0.024280730486230966, 0.2514227048227901, 0.2497078382129016, 24454000000, 
-0.13941691616335766, 0.061312177571434846, 0.24989117222374968, 24459000000, 
-0.06846227811671088, 0.14083082457157461, 0.25046204325894944, 24464000000, 
-0.05640155663796298, 0.19299765742306346, 0.24949176396647987, 24469000000, 
-0.09292789588413855, 0.16929476779016553, 0.2501838494629524, 24474000000, 
-0.012677754892765727, 0.30624102753104343, 0.25036036800832984, 24479000000, 
-0.08914266590215922, 0.03616709672100978, 0.25009639546928636, 24484000000, 
-0.08570773599630413, 0.20262277887009197, 0.25066008363817405, 24489000000, 
-0.04555691955052999, 0.3147647882976314, 0.2505980477802122, 24494000000, 
-0.046086140639720184, 0.07256661991100886, 0.25119564069394695, 24499000000, 
-0.03933464767342068, 0.17334894114073046, 0.25131474904191703, 24504000000, 
-0.04339375444888191, 0.2880157704896746, 0.2511794471073779, 24509000000, 
-0.08274801064774334, 0.005404470742448014, 0.2520287833687355, 24514000000, 
-0.04339755520159801, 0.17556209432882364, 0.2523264809136279, 24519000000, 
-0.08764398088154365, 0.15886382113055741, 0.25194243025059704, 24524000000, 
-0.022690773405653824, 0.21105374940282245, 0.2520725451509762, 24529000000, 
-0.02850141947692953, 0.28346402980424756, 0.25192676230968225, 24534000000, 
-0.1063936909488875, 0.03255363171587414, 0.2524639097072507, 24539000000, 
-0.06772445303117709, 0.194257714158335, 0.2523319845521598, 24544000000, 
-0.036802988740037665, 0.25528202328098043, 0.2520620968153258, 24549000000, 
-0.060610739235301365, 0.04948258611044838, 0.25213879473079226, 24554000000, 
-0.06437643863544394, 0.19849962575806046, 0.25212644409444973, 24559000000, 
-0.07039604703598751, 0.25141680724271037, 0.2515787176266522, 24564000000, 
-0.054267724935016866, 0.048610208945174226, 0.2518305362572876, 24569000000, 
-0.09494105280014167, 0.1944995466290429, 0.25179732838155705, 24574000000, 
-0.03578861585693614, 0.2669175025042691, 0.2514379088281974, 24579000000, 
-0.07665066284842133, 0.054596090546376305, 0.25129311801373283, 24584000000, 
-0.06452888658283608, 0.2192524441119692, 0.2513808950035347, 24589000000, 
-0.08025611842001212, 0.17823931641112417, 0.25133131699563127, 24594000000, 
-0.06549497380808171, 0.17827304725957455, 0.251038212804102, 24599000000, 
-0.016613162345437377, 0.27620944428738586, 0.2514856475400092, 24604000000, 
-0.10448742844153733, 0.07832456381324478, 0.25115931887742476, 24609000000, 
-0.030706541537242803, 0.1915453280423153, 0.25132059689530395, 24614000000, 
-0.04774141668251454, 0.3200286855380881, 0.25055773539672144, 24619000000, 
-0.10658176363487183, 0.04171578938125707, 0.25048383509383826, 24624000000, 
-0.07312297347617017, 0.17169605968548557, 0.2506397096803658, 24629000000, 
-0.07531675502764937, 0.2071181291262837, 0.2498650428589034, 24634000000, 
-0.03628710303691708, 0.1798826123178804, 0.2502417483973716, 24639000000, 
0.0076232904893435705, 0.27539872853763736, 0.25009597747864837, 24644000000, 
-0.10322391178662536, 0.016251704663170666, 0.24994827912784948, 24649000000, 
-0.0400239683932069, 0.19478197997220484, 0.25001203575537295, 24654000000, 
0.0016297103398617563, 0.22787117191024034, 0.2491218774868073, 24659000000, 
-0.17646013871396588, -0.13090739405319918, 0.24961928816623416, 24664000000, 
-0.055885768591958304, 0.18694372320467958, 0.25013746409236615, 24669000000, 
0.0072643162110278305, 0.30463376284109533, 0.24939085321064514, 24674000000, 
-0.1058266188040469, 0.07085746380385205, 0.24952886611761413, 24679000000, 
-0.026775652487048284, 0.28547918581742915, 0.24987488864776086, 24686000000, 
-0.11751105547309051, 0.020997946781325057, 0.2500053801170485, 24691000000, 
-0.060141029525612816, 0.19738118187048018, 0.2504667123837146, 24696000000, 
-0.0013257588601230663, 0.3194171572341098, 0.25065945902720993, 24701000000, 
-0.07392302202738954, 0.07163449424819457, 0.2505902699775943, 24706000000, 
-0.08497979401738726, 0.20171316618944798, 0.25064723539451766, 24711000000, 
0.014405422736974871, 0.2550884523563638, 0.25018781563640924, 24716000000, 
-0.08798503757833877, 0.07929742822199749, 0.2508013492034784, 24721000000, 
0.026836441685188825, 0.276594137903431, 0.25090355676672094, 24726000000, 
-0.0993745581116298, 0.0653403125161069, 0.2504830806795162, 24731000000, 
-0.06982441691931049, 0.17851002793974596, 0.2509019392132087, 24736000000, 
-0.019372226777093327, 0.28587043606098556, 0.25046305983682615, 24741000000, 
-0.11060703557139222, 0.09225732473584401, 0.25072751895268697, 24749000000, 
-0.0017837421795337286, 0.31899713354014686, 0.25000002788536607, 24754000000, 
-0.1227863067231105, -0.00029550810407650077, 0.2505717530028812, 24759000000, 
-0.08139392495436773, 0.18880341198844536, 0.250728690664774, 24764000000, 
-0.017357561966701317, 0.25039677631236035, 0.24997094092804026, 24769000000, 
-0.10469516976044721, 0.0781444549740152, 0.24980501507741917, 24774000000, 
-0.03654907140196672, 0.18365093069799324, 0.2505305422209364, 24779000000, 
-0.10032797558823836, 0.19432449574416324, 0.2502108756129531, 24784000000, 
-0.052591041556812726, 0.173990609285675, 0.2505517297479575, 24789000000, 
0.006326390618020376, 0.28324051569016556, 0.25084867603756217, 24794000000, 
-0.12365594756382949, 0.08639739802243855, 0.2511528529952609, 24799000000, 
-0.03730528266165107, 0.19416841491842884, 0.25143647160000065, 24804000000, 
-0.07484199197698849, 0.28909099612744604, 0.25207583002479683, 24809000000, 
-0.0950743292212708, 0.02318573368198742, 0.25207639913852437, 24814000000, 
-0.03340927398040826, 0.19099222082452877, 0.2527358668198117, 24819000000, 
-0.008408225738532775, 0.2748968799717635, 0.25272647718325625, 24824000000, 
-0.08035871876683032, 0.0753960573338536, 0.252371292765476, 24829000000, 
-0.02662874371531723, 0.19070472280347978, 0.25296599977484574, 24834000000, 
-0.019122929426385767, 0.28906397954439506, 0.2527374014211706, 24839000000, 
-0.0947149030866763, 0.057655127264003216, 0.25265863918641346, 24844000000, 
-0.05730659725166363, 0.16120892258681752, 0.2528969530689379, 24849000000, 
-0.038097773282494043, 0.23808702145804142, 0.2521437517768117, 24854000000, 
-0.06572177149319318, 0.10649856157778155, 0.25283304431040393, 24861000000, 
-0.03897386135935509, 0.3121853991726188, 0.25249710392771246, 24866000000, 
-0.09815123773427749, 0.12342642504378917, 0.2522748273777187, 24872000000, 
-0.040446450583542314, 0.20701801131275097, 0.25249904166236053, 24877000000, 
-0.038630974156402154, 0.2822182205933191, 0.251766232848, 24882000000, 
-0.09201143232183648, 0.05528769936572926, 0.2519515033198363, 24887000000, 
-0.05860378635323316, 0.18413096504576904, 0.2517842009924942, 24892000000, 
0.009707338453536718, 0.2887507749389052, 0.25083572237578866, 24897000000, 
-0.08548575718743205, 0.09125961649290876, 0.2512456663126915, 24902000000, 
-0.06783935771809677, 0.18452027444886873, 0.2511071220421719, 24907000000, 
-0.06338052512512748, 0.13131646620316867, 0.25040307954629487, 24912000000, 
-0.04049635248119163, 0.18655416748468792, 0.25014881029837366, 24917000000, 
0.005968190054742983, 0.25474303246080277, 0.25002800965157135, 24922000000, 
-0.12264197588620225, 0.11090882520898607, 0.2498938008302862, 24927000000, 
-0.08231141251987384, 0.19227057602744227, 0.24986881859757218, 24932000000, 
-0.03936042128175663, 0.19353684891655926, 0.24941603161551096, 24938000000, 
-0.09115868527758701, 0.1614124889042993, 0.2497360678321259, 24943000000, 
-0.011050260976347087, 0.2801528078728183, 0.24921048411272015, 24948000000, 
-0.12527211021120963, -0.0043488638714371045, 0.2499007461600349, 24953000000, 
-0.06069158297399173, 0.1574346130271041, 0.24969669070643846, 24958000000, 
-0.009849170468383534, 0.3068873134378888, 0.24989361334509905, 24963000000, 
-0.09033337620884375, 0.05150450944526403, 0.24964675067711514, 24968000000, 
-0.08113463357958149, 0.18831645721591678, 0.2504749714052483, 24973000000, 
-0.019887956637844276, 0.15736397159851956, 0.2504307781522464, 24978000000, 
-0.04530003545219322, 0.18091850896938685, 0.2502541527671243, 24983000000, 
0.0013431575842466244, 0.2651302793079618, 0.2498952390786235, 24990000000, 
-0.147695615671355, 0.03523375414566046, 0.25038931468795517, 24995000000, 
-0.0499204365380066, 0.15537782312291465, 0.25073199583170747, 25000000000, 
0.009130645926747985, 0.2918724988372414, 0.25035284827378107, 25005000000, 
-0.12119040751158029, 0.10595090992737344, 0.2506142953419627, 25010000000, 
-0.08340894087483676, 0.18904986666106444, 0.2507082536272581, 25015000000, 
0.008665467397020402, 0.27252618083670826, 0.2503876814110062, 25020000000, 
-0.11663815627768992, 0.07951889820005269, 0.25037206501899323, 25025000000, 
-0.046516440125362074, 0.2212138597985584, 0.25057277853029586, 25030000000, 
-0.015435862975684798, 0.2569641456749075, 0.2503374083791681, 25035000000, 
-0.12793678016985255, 0.06681448937616594, 0.2501933690985624, 25040000000, 
-0.05393326849564227, 0.2059354217751864, 0.25037387119864035, 25046000000, 
-0.06397870420712871, 0.1696797811898747, 0.25005742623606425, 25051000000, 
-0.06115772151544488, 0.16467693871128936, 0.250316841430285, 25056000000, 
-0.03993590183348504, 0.16774620261079384, 0.2502080080977392, 25061000000, 
-0.048572271432558746, 0.1704970141780318, 0.2499690424207498, 25066000000, 
-0.08500879283184307, 0.19057100556592568, 0.2502775429516317, 25071000000, 
-0.014493668897228498, 0.2729296890978464, 0.25017145695288256, 25076000000, 
-0.1162715107435974, 0.06033743882325014, 0.2503938063572077, 25081000000, 
-0.0586761871483386, 0.20509594495435024, 0.25046855736389717, 25086000000, 
0.006103843791454051, 0.29354737749450877, 0.24982993304692802, 25091000000, 
-0.12279300745465613, 0.06690786297960281, 0.2501742658620989, 25096000000, 
-0.07915621239801614, 0.1972361625575783, 0.2504867026488324, 25101000000, 
-0.05751446228861934, 0.15495601629646663, 0.25084290701448814, 25106000000, 
-0.019960954574079124, 0.17528262128993036, 0.2503906846126919, 25111000000, 
-0.026330915313035223, 0.29118484661108124, 0.25064617828735575, 25116000000, 
-0.08573298098978817, 0.07659636244872779, 0.2504838747822393, 25121000000, 
-0.057376218813858584, 0.1672774068310771, 0.2506613557918338, 25126000000, 
-0.00041099338885059854, 0.2649484787626753, 0.25044475370128444, 25131000000, 
-0.1451952548032428, 0.01985579814045567, 0.25079766402544074, 25136000000, 
-0.03842256018160777, 0.19821063730768954, 0.25075737550455446, 25141000000, 
-0.00308596916314431, 0.26278366452512697, 0.25041086507300786, 25146000000, 
-0.12842868006718217, 0.09351429593176977, 0.2505825590771213, 25151000000, 
-0.04046766207610937, 0.1985174136325227, 0.2507280347359035, 25156000000, 
-0.02588839091061876, 0.2459945516362819, 0.2505546133418072, 25161000000, 
-0.06259209856485767, 0.07127683521360309, 0.2509891003062679, 25166000000, 
-0.03965799332965156, 0.17581863586252638, 0.2512594796181547, 25171000000, 
-0.03412451877986178, 0.2316467863615523, 0.2509270937005529, 25176000000, 
-0.0907008581023543, 0.09065488584094655, 0.25160304445008735, 25181000000, 
-0.06659157002476626, 0.2090287436561951, 0.2519655629515012, 25186000000, 
0.009197724013348552, 0.24380510040767964, 0.25183642259293837, 25191000000, 
-0.11701980419192991, 0.08323448655145388, 0.25222772151041933, 25196000000, 
-0.03569658871296599, 0.20968305274726118, 0.2526397248759517, 25201000000, 
-0.004200990393251551, 0.23852245487489976, 0.2522747363985192, 25206000000, 
-0.10787827101654039, 0.10271133806399388, 0.25225812232208344, 25211000000, 
-0.04863008095586596, 0.17265973939415816, 0.25244384926194824, 25216000000, 
-0.005066001842061551, 0.2161497901244874, 0.2519669166582378, 25221000000, 
-0.0945987517036743, 0.12812578222699375, 0.25252134457494924, 25226000000, 
-0.06313339796494427, 0.2219164837459297, 0.25216691844313494, 25231000000, 
-0.011355677596556507, 0.2599500338189246, 0.251645241154693, 25236000000, 
-0.09014864155239392, 0.09909365471726109, 0.2513594000435642, 25241000000, 
-0.060789202776547174, 0.18208554086264306, 0.251205176861387, 25246000000, 
-0.04115670371689488, 0.18034883829078757, 0.2502349220626081, 25251000000, 
-0.0517236406650151, 0.1674113480451128, 0.25043604232953076, 25256000000, 
-0.011178683458254282, 0.2652431576881142, 0.2501677480162372, 25261000000, 
-0.1247381961100809, 0.017598563638691934, 0.24901039057714414, 25266000000, 
-0.05950471054251319, 0.20187935047710742, 0.249417209082381, 25271000000, 
0.01033449810714997, 0.2632336866643433, 0.24911240376041413, 25276000000, 
-0.1582369475526662, 0.023510652418040828, 0.2491721538308234, 25281000000, 
-0.0643995323115565, 0.19834494283652956, 0.24944194165611228, 25286000000, 
0.016307921499357746, 0.28528915939283706, 0.2484756931530055, 25291000000, 
-0.15275421263021582, 0.05255085847647521, 0.24936236383776494, 25296000000, 
-0.024395006760160917, 0.2548242364283026, 0.24964733544297735, 25301000000, 
-0.09339828430564245, 0.07109865364752843, 0.24930643983724593, 25306000000, 
-0.06163799753616765, 0.2030481124563812, 0.2502393614894936, 25311000000, 
0.007468987261138295, 0.28406997633536507, 0.2503717035855056, 25316000000, 
-0.10761655531143183, 0.09526265499489059, 0.2504201686454315, 25321000000, 
-0.036247047013178296, 0.18634527070544163, 0.25085145020609123, 25326000000, 
-0.03758069801427944, 0.20224954864258474, 0.2509150654704523, 25331000000, 
-0.08081152050785807, 0.14964484622588647, 0.25067560849544607, 25336000000, 
0.002327374194051199, 0.26933685598482676, 0.25069493377748603, 25341000000, 
-0.1220971221355979, 0.06721508584641032, 0.25106715316810785, 25346000000, 
-0.062371639091425506, 0.18762726107190472, 0.25110420886888946, 25351000000, 
0.008215003027765243, 0.24750893140876035, 0.25057550478471063, 25356000000, 
-0.10949160103279842, 0.08758527644572886, 0.2509949764575478, 25361000000, 
-0.050861547568803234, 0.12831391173928242, 0.25081463077172944, 25366000000, 
0.02762821210775442, 0.24847303209601754, 0.25008658761244446, 25371000000, 
-0.09946465274561399, 0.0876422782011437, 0.25039807508561573, 25376000000, 
-0.055036419809303426, 0.18811030164528889, 0.2505509415520759, 25381000000, 
0.019342410945451357, 0.260195100419552, 0.24973375222385383, 25386000000, 
-0.14318093448000588, 0.10297983575872553, 0.24989275157068883, 25391000000, 
-0.050472522007571984, 0.18757029502645847, 0.24981083453559852, 25396000000, 
-0.025283445984001184, 0.15044027426200682, 0.24955799453446403, 25401000000, 
-0.06862430774921355, 0.1561836295761862, 0.2500876849388058, 25406000000, 
0.02718216877377872, 0.2889312806838849, 0.2502114057384458, 25411000000, 
-0.138066404712445, 0.04631774323222404, 0.24957893366641792, 25416000000, 
-0.06819452483137173, 0.17761837194742508, 0.25023309998020155, 25421000000, 
0.01814779950914238, 0.2788486633965862, 0.250221747724616, 25426000000, 
-0.09653426210794921, 0.07736523829310747, 0.2500052761613005, 25431000000, 
-0.09457143005386917, 0.19503853932706286, 0.2502295058823348, 25436000000, 
0.02780580230308447, 0.2543272986799983, 0.250246422870514, 25441000000, 
-0.12858615727776035, 0.06829870600855775, 0.25046530276017515, 25446000000, 
-0.0877161416298679, 0.16396452831595076, 0.25080636818869495, 25451000000, 
-0.05409070219571255, 0.17191439108082532, 0.25023264537081485, 25456000000, 
-0.07749349766938184, 0.12358669798344118, 0.2504886583431885, 25461000000, 
-0.054540326720296815, 0.18777737678242684, 0.25103425886195835, 25466000000, 
-0.07053420640633719, 0.19566299479192684, 0.2502300045522514, 25471000000, 
-0.04765768862016142, 0.1773760990979944, 0.2504493557448782, 25476000000, 
-0.07533092984858761, 0.19251398864591107, 0.25071623791710757, 25481000000, 
-0.04319134667411195, 0.1606769678894749, 0.2504278927511892, 25486000000, 
-0.07499649041592431, 0.202604221961536, 0.2509221164018686, 25491000000, 
-0.0018796998721943388, 0.2417500166415439, 0.25074033373103505, 25496000000, 
-0.14053480408672955, 0.06898109143619101, 0.251366098652915, 25501000000, 
-0.03895234850705598, 0.21365382895356824, 0.25141082720168256, 25506000000, 
-0.03787633742151558, 0.17970879540424847, 0.2515861218727439, 25511000000, 
-0.04572202251271943, 0.1562844662916111, 0.25167081783648776, 25516000000, 
-0.027864863515628047, 0.21375104116748284, 0.25204351850332735, 25521000000, 
-0.04342265633827422, 0.20402718115625149, 0.2521897468906028, 25526000000, 
-0.08172631901657193, 0.12803665162318084, 0.2523799720577468, 25531000000, 
-0.05485272816629358, 0.18378788334221965, 0.25268088683936046, 25536000000, 
-0.02149947000826857, 0.23655851085182283, 0.25222607409654796, 25541000000, 
-0.0965512700925496, 0.07681671860016896, 0.2523363065594072, 25546000000, 
-0.04940403699001431, 0.19324210319701898, 0.2524199026583929, 25551000000, 
-0.026818248677348052, 0.18482298181485882, 0.2525967982016345, 25556000000, 
-0.06592873619928369, 0.17297772469495085, 0.25207383070766626, 25561000000, 
-0.04401548883182593, 0.1807964830592491, 0.2522492697679915, 25566000000, 
-0.07203285724250097, 0.16791694325130951, 0.2517796281599512, 25571000000, 
-0.0644928587400958, 0.17057860131004066, 0.2514686651537521, 25576000000, 
-0.03249102144580135, 0.17846482387362225, 0.2512912764912, 25581000000, 
-0.050504091122545766, 0.20795480869016697, 0.25142450641615455, 25586000000, 
-0.07604293078281014, 0.2197231203469154, 0.25131344989199694, 25591000000, 
-0.06618388398921465, 0.1750684693958335, 0.25140160654416577, 25596000000, 
-0.05464740286860515, 0.19284496991828332, 0.2511641158095564, 25601000000, 
-0.06145607944204124, 0.13864689369356106, 0.25099026165083216, 25606000000, 
-0.06566321783270263, 0.17899875813885477, 0.25145786195451436, 25611000000, 
0.02683620964779383, 0.25709367422724916, 0.25150339280491985, 25616000000, 
-0.1720581503092896, 0.07481031179415765, 0.2510665706890873, 25621000000, 
-0.046596543652153044, 0.17909146935510756, 0.25107261318065577, 25626000000, 
-0.003233365033182573, 0.2580399535021846, 0.25061286013158, 25631000000, 
-0.16086114099619184, 0.027648861357906982, 0.250264746518771, 25636000000, 
-0.059620170970368355, 0.2066391996124417, 0.2506244137753242, 25641000000, 
0.0645376037717155, 0.267406570580377, 0.25038060680642715, 25646000000, 
-0.12149158173819168, 0.10613916890979608, 0.24964356587730904, 25651000000, 
0.00434514584883119, 0.2613198189589747, 0.25000649977122674, 25656000000, 
-0.14957216345442337, 0.08026064623179448, 0.24969539974614308, 25661000000, 
-0.014275909161224967, 0.15945354767414258, 0.24995565884567736, 25666000000, 
0.08773741142309688, 0.259559410093365, 0.2493559335826921, 25671000000, 
-0.16061648626122407, 0.09945803152538533, 0.24938133092894857, 25676000000, 
-0.03296623501410324, 0.20268295975560466, 0.24948651567869928, 25681000000, 
-0.03930727057698366, 0.1778143910010138, 0.2498769560206269, 25687000000, 
-0.04454188874515905, 0.18867654437788392, 0.25002347554514975, 25692000000, 
0.013140151641947134, 0.2395609680987174, 0.25023671505805084, 25697000000, 
-0.1518962558003773, 0.0941193319288167, 0.24977600432725597, 25702000000, 
-0.04883763071544433, 0.1632554618407884, 0.2502810546455372, 25707000000, 
0.04858552754769076, 0.22684677057879948, 0.25030424335887436, 25712000000, 
-0.1747017400703422, 0.10454883044292324, 0.2504415400357093, 25717000000, 
0.038065822129794896, 0.24418254410623413, 0.25023717933396644, 25722000000, 
-0.10870608771417467, 0.10040264299693238, 0.25030874473562537, 25727000000, 
-0.05624039674868726, 0.17770837210322787, 0.2507731333273982, 25732000000, 
0.04737296347677138, 0.27683068785754505, 0.25045129403720234, 25737000000, 
-0.1301192242128118, 0.08056542238135594, 0.2507631830612677, 25742000000, 
-0.057838308128045315, 0.1775612573112124, 0.2507989893629707, 25747000000, 
-0.04050596527131694, 0.15063859268625934, 0.2503016637141886, 25752000000, 
-0.05719802561720308, 0.17915385798271452, 0.25057956392330916, 25757000000, 
-0.0045888992498042055, 0.2754826839127276, 0.2502861088240797, 25762000000, 
-0.17279459748075204, 0.0829658122457857, 0.25018282974342565, 25767000000, 
-0.05930315371287674, 0.18743522358873768, 0.2503123995529588, 25772000000, 
0.04954028918100916, 0.2692389264926813, 0.25027774808985326, 25777000000, 
-0.15301555914849957, 0.10317325144514336, 0.25017810115109473, 25782000000, 
-0.06476093186626336, 0.2008391132571439, 0.2502067530766283, 25787000000, 
0.013855492053859171, 0.2584879078382064, 0.2501701601759214, 25792000000, 
-0.12597742275245938, 0.09946302178299263, 0.24977880944122707, 25797000000, 
-0.0480487885235716, 0.17717222602490992, 0.25049787731950257, 25802000000, 
0.0890006141988293, 0.2338087397478793, 0.24972301755826867, 25807000000, 
-0.1563407698612488, 0.06797361958806716, 0.24982122322358544, 25812000000, 
-0.03277845348555153, 0.1775343361183309, 0.2502828947730264, 25817000000, 
-0.06703132962731555, 0.1611273144885046, 0.2500774734341941, 25822000000, 
-0.04661058115777058, 0.16062152981895386, 0.2503712948775105, 25827000000, 
-0.02669683129135706, 0.16841324005093075, 0.25044953801653697, 25832000000, 
-0.07065818498424868, 0.1715474976361919, 0.25070902185214555, 25837000000, 
-0.037094510848105354, 0.1602627127064976, 0.25072124554397845, 25842000000, 
-0.043182445235457126, 0.19682879630877315, 0.2510056877376785, 25847000000, 
-0.08661768313676464, 0.14541738067021076, 0.2511610484705445, 25852000000, 
-0.03693898813245068, 0.1807220112392034, 0.25208849858130805, 25857000000, 
-0.035844960744498736, 0.16114767057810273, 0.2518575515504421, 25862000000, 
-0.08878207483858826, 0.1961079676368728, 0.25167971770142045, 25867000000, 
-0.04887700307441386, 0.1742076350890415, 0.2519242312844691, 25872000000, 
0.028433980861479205, 0.2243915778463361, 0.25245681730612585, 25877000000, 
-0.1830679465647884, 0.10553856543215961, 0.2517659959010683, 25882000000, 
-0.012115888902340959, 0.17960532631669407, 0.25246523124633535, 25887000000, 
-0.03501788216852813, 0.1747319872327335, 0.2522626050190855, 25892000000, 
-0.08981610639493538, 0.18538934752769562, 0.25220629735186323, 25897000000, 
-0.03297679680001058, 0.17013643480073637, 0.2520735393464658, 25902000000, 
-0.039626101865812946, 0.2056917459589915, 0.2526259884634217, 25907000000, 
-0.058567082939713556, 0.17615618227823082, 0.2521753879912057, 25912000000, 
-0.035078967689555034, 0.13328081177386703, 0.2518329441212513, 25917000000, 
-0.006814914186397514, 0.1695429803855483, 0.251921903828725, 25922000000, 
-0.06431908618300977, 0.1782689372439184, 0.25131218491704405, 25927000000, 
-0.02769100995787903, 0.14930154452213223, 0.2513320504212818, 25932000000, 
-0.06685324701789683, 0.16681886806766752, 0.2515631277853893, 25937000000, 
-0.07470303023885916, 0.17279202068662122, 0.2513080434767434, 25942000000, 
-0.0011343124459235535, 0.1785833126762096, 0.2519841258305424, 25947000000, 
-0.04008017764352797, 0.17658005135066285, 0.2514464834517944, 25952000000, 
-0.05074913006555943, 0.1853663861409619, 0.2511074877405864, 25957000000, 
-0.04539449054186427, 0.17154137420984575, 0.2513576927667627, 25962000000, 
-0.03586137945682557, 0.161078121454859, 0.2513157420868011, 25967000000, 
-0.06658672630340662, 0.18855437763275418, 0.2510773658187537, 25972000000, 
-0.054683661530079225, 0.2075475761460614, 0.25091368576974576, 25977000000, 
-0.05601960424205866, 0.1745373520667028, 0.25121989408685835, 25982000000, 
-0.08705172054491532, 0.16504618528339826, 0.25057439173462537, 25987000000, 
-0.05939030245462988, 0.16642654006063765, 0.2507446490942562, 25992000000, 
0.07237462006843827, 0.25346829516609937, 0.25079804833454106, 25997000000, 
-0.1820230008852505, 0.06578449873990727, 0.2505162456540006, 26002000000, 
-0.09085329897766506, 0.16775998468690245, 0.250162137684563, 26007000000, 
0.06574432748337446, 0.24189971255335002, 0.2506099229537875, 26012000000, 
-0.1960995430066848, 0.08588254931997008, 0.2502410050501874, 26017000000, 
-0.05412929556897536, 0.19409646568953418, 0.2500725741485943, 26022000000, 
0.09775707246481966, 0.24547424724829361, 0.2500592077626682, 26027000000, 
-0.24078466091753228, 0.10676599724080145, 0.25007196731057957, 26032000000, 
-0.047146256791562126, 0.193699621213353, 0.2504724246476747, 26037000000, 
0.08256701668728197, 0.20593153026008543, 0.24974187400488088, 26042000000, 
-0.1958793071095478, 0.12334745850208635, 0.24952910780538695, 26047000000, 
-0.0597076738673362, 0.17474069726334882, 0.2501220627046607, 26052000000, 
0.159885355207707, 0.2444047230808008, 0.24977556594129682, 26057000000, 
-0.2604510713094692, 0.12346459265123533, 0.2499511624565625, 26062000000, 
-0.06386561442878452, 0.20042420007717163, 0.2502344197026375, 26067000000, 
-0.023824686529228246, 0.15198199510974678, 0.25016263704537933, 26072000000, 
-0.08849183995448091, 0.1529400340818479, 0.2500208467257923, 26077000000, 
0.10773654945152267, 0.22874501287295979, 0.25039003839210006, 26082000000, 
-0.19659319830914615, 0.10286973574886311, 0.25023275827640645, 26087000000, 
0.05961257357086093, 0.21662822952443023, 0.25082309298541217, 26096000000, 
-0.25614465463203967, 0.07610503195539724, 0.2502263540601997, 26101000000, 
-0.04935817512684829, 0.18771387183900579, 0.2502987656283434, 26106000000, 
0.09100530834829278, 0.23584637786345009, 0.25077552732125674, 26111000000, 
-0.20912089041974655, 0.06688785394108401, 0.2503027014410451, 26116000000, 
-0.008078603490432698, 0.1678242183606654, 0.2504762659951061, 26121000000, 
0.1007276337950364, 0.22094227784141657, 0.25043392481209303, 26126000000, 
-0.2180186586477867, 0.10932393592621155, 0.25029350110507786, 26131000000, 
-0.015957972111130994, 0.17671368765907922, 0.2506025130282471, 26136000000, 
-0.05479861186624315, 0.18093312049459725, 0.24987590102604745, 26141000000, 
-0.09849213842276791, 0.16020461181453077, 0.24990185045392846, 26146000000, 
-0.06907776137143085, 0.18473443181115462, 0.2504782160953877, 26151000000, 
-0.0662725205620825, 0.1661719588229307, 0.25006016516435214, 26156000000, 
-0.06097912222366155, 0.1907578848842908, 0.25006675547757756, 26161000000, 
0.06524165758020382, 0.24578764661198785, 0.24983126499943895, 26166000000, 
-0.18137213550705722, 0.12149319258887396, 0.24982112752363086, 26171000000, 
-0.06485462675776954, 0.17382353469465775, 0.25065821128212945, 26176000000, 
0.09489145913331054, 0.24142653641155787, 0.2501742689110375, 26181000000, 
-0.1720130348586261, 0.11624988101306241, 0.25003999675123256, 26186000000, 
-0.05302743643325467, 0.15412911101296758, 0.25062636966456897, 26191000000, 
-0.028698383366048984, 0.20722772281501267, 0.2500026545501979, 26196000000, 
-0.0481763611944047, 0.18656726789700673, 0.25017609278491815, 26201000000, 
0.030936746534100903, 0.2475684771187817, 0.25043462481315504, 26206000000, 
-0.16874230634282567, 0.13455874845191948, 0.24996379533301352, 26211000000, 
-0.06678847584036808, 0.19223835118549337, 0.2507277421467521, 26216000000, 
0.1820884413085, 0.33572050814088167, 0.2502862346363565, 26221000000, 
-0.11124377987877249, 0.14025974973226257, 0.2504287542043255, 26226000000, 
0.013435975787221041, 0.25365914349174096, 0.25031075918807133, 26231000000, 
-0.12346314495265955, 0.09260406568919369, 0.25008003657817957, 26236000000, 
-0.040423644794132206, 0.21352113054942629, 0.25037664531945675, 26241000000, 
0.028354807491839853, 0.2416095779577989, 0.2499972745431386, 26246000000, 
-0.13323541484827905, 0.09171047108504701, 0.2501076666732944, 26251000000, 
-0.06784426677964733, 0.1613219706141508, 0.2504867487282938, 26256000000, 
0.04002866892877634, 0.2475413810457865, 0.2500342387509121, 26261000000, 
-0.12172114547412344, 0.08742578928591797, 0.25065799271086836, 26266000000, 
-0.05178976896841638, 0.18229973928988305, 0.25043115147010836, 26271000000, 
-0.06127523655365913, 0.14304464997370378, 0.250428937195874, 26276000000, 
-0.07678336552072193, 0.19079367750189075, 0.2504703171670766, 26281000000, 
0.014560502710460145, 0.22322307380757875, 0.2501117959633072, 26286000000, 
-0.11624860130762421, 0.0927906239141528, 0.250176659460168, 26291000000, 
-0.03366707015850988, 0.18468785779304903, 0.25018709015227875, 26296000000, 
9.084053896162708e-05, 0.2675801997645418, 0.25000953296337985, 26301000000, 
-0.10954026216825576, 0.10489799370276756, 0.2501297547020403, 26306000000, 
-0.040664453357750235, 0.20113953188703854, 0.25025185272270983, 26311000000, 
-0.02535337853416173, 0.14637459428767927, 0.24959201065717126, 26316000000, 
-0.048919903518033526, 0.17534017284793155, 0.2500302332011241, 26321000000, 
0.002318636362059907, 0.24506708790259638, 0.25013532935254856, 26326000000, 
-0.11205673056770728, 0.0861436355875139, 0.24992404962648876, 26331000000, 
-0.10170288448886287, 0.18024304385030596, 0.25010452062604394, 26336000000, 
-0.028219516922867977, 0.2426741136539499, 0.24964677188962958, 26341000000, 
-0.12351182072964653, 0.08922585987695131, 0.2500723203938846, 26346000000, 
-0.0008095583889424912, 0.22963153115389714, 0.25002855891770265, 26351000000, 
-0.13040036353291962, 0.08533941766451895, 0.2501308446525231, 26356000000, 
-0.06803705614738303, 0.15199774740351868, 0.25043503543118784, 26361000000, 
0.0057728539792946156, 0.28148895804702856, 0.25037550390731195, 26366000000, 
-0.09980396293021394, 0.0811911947879622, 0.25006118571269403, 26371000000, 
-0.029267593449832752, 0.2361110473624046, 0.2504159005954504, 26376000000, 
-0.08621995369217803, 0.10084938508094544, 0.25026379544302463, 26381000000, 
-0.07293794773658559, 0.20588164771748535, 0.25049590978733555, 26386000000, 
0.005156332205647773, 0.24767758847498725, 0.2502394242239463, 26391000000, 
-0.09872399469310204, 0.09698053012510081, 0.2504499617947359, 26396000000, 
-0.06603016711149849, 0.16195766250202703, 0.25023594207323685, 26401000000, 
-0.0767119044259802, 0.25482214951546156, 0.2501709576187691, 26406000000, 
-0.11963274525281524, 0.06518807893760503, 0.2497338641417807, 26411000000, 
-0.06614572179399304, 0.19631896853784708, 0.2502837405606413, 26416000000, 
-0.02428771920029835, 0.24443247183697933, 0.24970613736885788, 26421000000, 
-0.08804212143516943, 0.0871265932823098, 0.2503301272361542, 26426000000, 
-0.07464003570627611, 0.19542158727777076, 0.2502980892772582, 26431000000, 
-0.004690426816508823, 0.23623381897153192, 0.24993611835084387, 26436000000, 
-0.10035775294889612, 0.10679080372113484, 0.24999868924313148, 26441000000, 
-0.08955660465283248, 0.17407696711336543, 0.2504687224826572, 26446000000, 
-0.04439606148833716, 0.2225936422042105, 0.24994176209306374, 26451000000, 
-0.07326468500459905, 0.08763233421036984, 0.24989027330627062, 26456000000, 
-0.03799869712622024, 0.2480178308781219, 0.25029261962949806, 26461000000, 
-0.04403289501799246, 0.106788891481303, 0.24985317442207056, 26466000000, 
-0.059482068300489625, 0.19193989324769348, 0.2502004645147847, 26471000000, 
0.001787707486571765, 0.24147921275231748, 0.25038414299538536, 26476000000, 
-0.10073183463966753, 0.09888416613618399, 0.25018845039543686, 26481000000, 
-0.06565128913812318, 0.17009749621539144, 0.2504835398363842, 26486000000, 
-0.015762559455984426, 0.26724499596768053, 0.2506363447691095, 26491000000, 
-0.08019316799963738, 0.143862530579964, 0.2504762215270501, 26496000000, 
-0.03533370235537217, 0.1721255092035325, 0.2506021890111993, 26501000000, 
-0.01849184035223091, 0.22156619818404683, 0.250249301089424, 26506000000, 
-0.06905699864821131, 0.10288402046414949, 0.2505615138567338, 26511000000, 
-0.06988100505463216, 0.2253005880345345, 0.25032633071104426, 26516000000, 
-0.04951770424494151, 0.26140487115543726, 0.2500802752824578, 26521000000, 
-0.07407179309429027, 0.08747575279645006, 0.25034021388782896, 26526000000, 
-0.05112889497872132, 0.23326306170122776, 0.2502933419231071, 26531000000, 
-0.06772145775200206, 0.08945794818061595, 0.24990530385613932, 26536000000, 
-0.07208296957484525, 0.18341948930927263, 0.25045863033659876, 26541000000, 
-0.03269493834899945, 0.25173901792389514, 0.2504578198389894, 26546000000, 
-0.08701489979386434, 0.03914955118731381, 0.25025476428489457, 26551000000, 
-0.023278013005919508, 0.16810753328896016, 0.25044053008905137, 26556000000, 
-0.05644360104190031, 0.18902850254735887, 0.24997437775029166, 26561000000, 
-0.07256387246039674, 0.16056108541275899, 0.2502156027748907, 26566000000, 
-0.05779399740415026, 0.2478034353483299, 0.2502072120507922, 26571000000, 
-0.07691489966069887, 0.0970904515892236, 0.25064068131799117, 26576000000, 
-0.03616974028715063, 0.191340028636694, 0.25117762015840867, 26581000000, 
-0.09227475646993875, 0.2640746610895274, 0.2506840475872674, 26586000000, 
-0.057075404083095124, 0.11351051415408293, 0.25178855451555765, 26591000000, 
-0.04295938863038367, 0.22725999606957553, 0.25212877866444033, 26596000000, 
-0.05446453581046137, 0.10936325455256002, 0.25212210677286406, 26601000000, 
-0.056860504315422195, 0.15044606133524308, 0.252806030839385, 26606000000, 
-0.08678984276037287, 0.28601761680117554, 0.2525794226770664, 26611000000, 
-0.04193482033212391, 0.1163020211154063, 0.25289993579967246, 26616000000, 
-0.01796518524082387, 0.17480017158911862, 0.25343218651816674, 26621000000, 
-0.0942350120035241, 0.23551340515978558, 0.25282052341916944, 26626000000, 
-0.056283287773193504, 0.11060640326730901, 0.2529684663729805, 26631000000, 
-0.029090124396509178, 0.1448514957830969, 0.2529717514586485, 26636000000, 
-0.04700052475920492, 0.261256976430519, 0.2519240567371635, 26641000000, 
-0.060167700148047065, 0.08935517218015113, 0.2522244712210025, 26646000000, 
-0.06933949020772884, 0.23898417097242974, 0.2518372484827597, 26651000000, 
-0.06335363832573905, 0.07613692001965262, 0.25121105527494164, 26656000000, 
-0.05824344592287973, 0.17430872577005196, 0.2513147672568093, 26661000000, 
-0.04827199734804797, 0.24377404340381473, 0.25028045008967675, 26666000000, 
-0.0427848891020505, 0.07498961405553313, 0.24988733974987065, 26671000000, 
-0.05867467974180987, 0.1701388627839822, 0.24962145248050463, 26676000000, 
-0.038032411113827574, 0.20232550050942028, 0.24883586794291576, 26681000000, 
-0.06024722098723006, 0.08566501628969694, 0.24916121293828256, 26686000000, 
-0.06366698877671169, 0.19242147985369706, 0.24940800124727994, 26691000000, 
-0.061314903005154006, 0.23453060524897545, 0.24853162226495937, 26696000000, 
-0.06371704997926819, 0.07636658613334764, 0.24861464357496332, 26701000000, 
-0.08265380120055102, 0.16875562357140228, 0.2490893239725144, 26706000000, 
-0.050002406816793146, 0.22167699850483483, 0.24880559248839318, 26711000000, 
-0.05451919272529445, 0.08981779045857058, 0.2496398353246678, 26716000000, 
-0.09247766300730048, 0.256593999903102, 0.249832940693682, 26721000000, 
-0.06663461331772855, 0.09442657248642605, 0.24965197030902334, 26726000000, 
-0.06070890747172562, 0.1889349891198682, 0.2504208083029626, 26731000000, 
-0.051043177963267225, 0.2406536597835093, 0.2505455952341365, 26736000000, 
-0.05339449566358968, 0.06849391047906905, 0.2504387439003681, 26741000000, 
-0.055993851136083815, 0.18471817079483024, 0.25130319281338565, 26746000000, 
-0.042927517610350706, 0.2480255796558469, 0.25126226920257494, 26751000000, 
-0.04926482035552585, 0.05834932596698263, 0.2513013980869197, 26756000000, 
-0.046390548245614414, 0.18890993535270034, 0.250908196309403, 26761000000, 
-0.05946228364570302, 0.2356834735241722, 0.2501645840767026, 26766000000, 
-0.06633124125272566, 0.10512758186423095, 0.2507974739758244, 26771000000, 
-0.04846471057430152, 0.20079505226062347, 0.2513963501495211, 26776000000, 
-0.0571402952154228, 0.2568729096183606, 0.25004910304408645, 26781000000, 
-0.07781218743344373, 0.11340528289864088, 0.2508996252125338, 26786000000, 
-0.04325553047400567, 0.24133506303519237, 0.25039277642028557, 26791000000, 
-0.0675273241121795, 0.12004687144011614, 0.24992994787582792, 26796000000, 
-0.01591366159013824, 0.2011312158639938, 0.25008201642243155, 26801000000, 
-0.073876963568977, 0.2487777886542354, 0.25004168170211694, 26806000000, 
-0.042407555744505734, 0.07352142309132566, 0.2497849628060535, 26811000000, 
-0.08830136839770428, 0.20822892975480162, 0.25010551332295, 26816000000, 
-0.01054702266209668, 0.17992719582569935, 0.24975913104339675, 26821000000, 
-0.05532144873349709, 0.17153845814704377, 0.2500498892870312, 26826000000, 
-0.04984945954264918, 0.26165069420062836, 0.2498317051655528, 26831000000, 
-0.06183014438477411, 0.12652393088051675, 0.2502660577398508, 26836000000, 
-0.07435522936751077, 0.1639649123763538, 0.2503648715247037, 26841000000, 
-0.07510005441947121, 0.2489165089018966, 0.2498675009843851, 26846000000, 
-0.06569417750278321, 0.08216737975115503, 0.25016113205360413, 26851000000, 
-0.107272217252528, 0.2583519484820355, 0.2504953136226508, 26856000000, 
-0.05743280217997687, 0.11411672671835768, 0.25013378573487616, 26861000000, 
-0.06044597239707709, 0.18935096354873387, 0.25063491999557336, 26866000000, 
-0.07115861974440585, 0.24882085370280055, 0.25008101609309774, 26871000000, 
-0.04579515884181158, 0.09688822573334234, 0.250430948819108, 26876000000, 
-0.06613182343619106, 0.18687534915792503, 0.2506291961168513, 26881000000, 
-0.05616498331144743, 0.16105809086272616, 0.2502352483811239, 26886000000, 
-0.07008176667077859, 0.16156464760280348, 0.25036607486975687, 26891000000, 
-0.07271915021772592, 0.24440022695281743, 0.250290071842145, 26896000000, 
-0.0200465369078033, 0.10484416454062617, 0.2501672199876783, 26901000000, 
-0.06352371845782942, 0.18492357254084735, 0.2505362664605577, 26906000000, 
-0.054161065986023674, 0.1712787434123895, 0.2500256193603204, 26912000000, 
-0.05487538918324958, 0.16481137036525628, 0.24998530244793582, 26917000000, 
-0.04890338821140124, 0.19078160727675894, 0.250199328088655, 26922000000, 
-0.07265544586423862, 0.25276982698594486, 0.2498547938517147, 26927000000, 
-0.06309999782675692, 0.08839856824155512, 0.2501155485428354, 26932000000, 
-0.05978626915298401, 0.23597863181674059, 0.25039923428590866, 26937000000, 
-0.08174046740835948, 0.09895786877594856, 0.24973621714025995, 26942000000, 
-0.057307131578317815, 0.18975064918026235, 0.2501762837505999, 26947000000, 
-0.06032989481339877, 0.24700214566327092, 0.24993147357383236, 26952000000, 
-0.052804525600748164, 0.10323793216136205, 0.2503305479902269, 26957000000, 
-0.08629713154011803, 0.2593069842570156, 0.25022985047605273, 26962000000, 
-0.040694445678519583, 0.12271477475830006, 0.25028376582275375, 26967000000, 
-0.04148832207108049, 0.2511245716267506, 0.250187280027608, 26972000000, 
-0.08590704406327582, 0.1728078332685495, 0.25018663188489815, 26977000000, 
-0.0252422619303942, 0.09405830373244901, 0.25073675608718876, 26982000000, 
-0.0883576880598599, 0.22158157305593748, 0.2506078051675695, 26987000000, 
-0.06252063702189187, 0.13027212062097202, 0.2501698507876619, 26992000000, 
-0.046801642492813066, 0.1742877314581034, 0.250512326580573, 26997000000, 
-0.08999973561315502, 0.228242256962659, 0.2505517566041126, 27002000000, 
-0.0006405863907176929, 0.10895113154655954, 0.2500671314648789, 27007000000, 
-0.05143277310648617, 0.16608112590937552, 0.2508051052875037, 27012000000, 
-0.07987104143621611, 0.26658464007163407, 0.2505524603331782, 27017000000, 
-0.02008625940127613, 0.08777103871967659, 0.2505116195950297, 27022000000, 
-0.07123072967872277, 0.19312891046664618, 0.25065171605511916, 27027000000, 
-0.06774080273537218, 0.2351674398289062, 0.2504108352098206, 27032000000, 
-0.0700111665762741, 0.056025161633020994, 0.2503079563786984, 27037000000, 
-0.09511579845168006, 0.2178931050949133, 0.2504009110343537, 27042000000, 
-0.05080253314113527, 0.19399402601726318, 0.24977288453401367, 27047000000, 
-0.04568248869484027, 0.10683581556506462, 0.2501069564280968, 27052000000, 
-0.08189495743965845, 0.2412206822277556, 0.2504189115754528, 27057000000, 
-0.008332709921854156, 0.0924769144541579, 0.25014388980832625, 27062000000, 
-0.07126466220029297, 0.15982019267494724, 0.2507237410963455, 27067000000, 
-0.045617975098124416, 0.2968451620420922, 0.2501956274476522, 27072000000, 
-0.048269998232200656, 0.09477889553984034, 0.2502831430086604, 27077000000, 
-0.08483489474641237, 0.2889806108650469, 0.2502856877882482, 27082000000, 
-0.004654964582182657, 0.07057019496469105, 0.250169870715542, 27087000000, 
-0.050356039234884444, 0.19424689846112903, 0.24984532674070284, 27092000000, 
-0.052281167774519036, 0.2254755317735636, 0.2501932606463132, 27097000000, 
-0.03901403529526424, 0.0949785009689256, 0.25021084112220804, 27102000000, 
-0.0433585139767981, 0.18791621098481792, 0.2503948176246683, 27107000000, 
-0.05544348360003601, 0.24534725964910334, 0.25000304765197423, 27112000000, 
-0.036151376318075225, 0.07957536596547701, 0.24992130650615194, 27117000000, 
-0.060405151742216286, 0.17655578287956017, 0.25052892155621853, 27122000000, 
-0.10126216403563733, 0.29168645516815384, 0.2501372838961682, 27127000000, 
-0.04349115640339985, 0.08169429908264614, 0.24999106328150586, 27132000000, 
-0.06119046561834262, 0.18096748296799875, 0.25049736297096953, 27137000000, 
-0.0784351572807551, 0.24632140463190683, 0.24998815211762926, 27142000000, 
-0.011631541155952382, 0.07072335993436452, 0.25047492855294595, 27147000000, 
-0.05304161720748334, 0.17061413678915985, 0.25087055245429235, 27152000000, 
-0.050794000202767246, 0.177005795867576, 0.250628208038411, 27157000000, 
-0.06058620471935436, 0.1671371565202593, 0.25056675526681643, 27162000000, 
-0.024065319857388995, 0.25923843183545675, 0.2512762084605044, 27167000000, 
-0.03345875971505308, 0.08471181008548659, 0.25112824857890004, 27172000000, 
-0.05916006245507405, 0.22056969142675928, 0.2511510889690681, 27177000000, 
-0.06724984351793349, 0.2805863267689702, 0.25136000489448646, 27182000000, 
-0.02614626933850596, 0.0783721492713854, 0.2509812059319244, 27187000000, 
-0.06935891918937669, 0.19505254345689188, 0.2513958519040626, 27192000000, 
-0.05332112935319739, 0.1810848282981295, 0.2507038982233324, 27197000000, 
-0.04840224326066976, 0.20049933015931898, 0.25061634362060853, 27202000000, 
-0.04639878056198074, 0.18024048914147695, 0.2504013132424799, 27210000000, 
-0.0524102133020174, 0.17969195320665515, 0.2494219862084852, 27215000000, 
-0.0747887036963715, 0.25007688447703497, 0.2501229117738437, 27220000000, 
-0.004515574781387446, 0.07183674694107026, 0.24951377057547666, 27225000000, 
-0.08480556763010277, 0.17397330374928727, 0.25016811970897973, 27230000000, 
-0.08011908432105436, 0.244817697024384, 0.24973202042144382, 27235000000, 
-0.021132634880638896, 0.03655773352160099, 0.24934139223659546, 27240000000, 
-0.05092976685228648, 0.14512772481814024, 0.2501128224980913, 27245000000, 
-0.11244348999015008, 0.2651897826207577, 0.24989374161441563, 27250000000, 
-0.006997773506040219, 0.067082638493825, 0.24985874215959752, 27255000000, 
-0.08130820335049148, 0.1943983909786005, 0.24999268970644428, 27260000000, 
-0.09829257275635778, 0.2498423754715727, 0.24988109224235633, 27265000000, 
-0.039621494790509554, 0.10084952823938155, 0.25017207000054886, 27270000000, 
-0.11174717254737276, 0.24172743630657956, 0.2500268045656365, 27275000000, 
-0.01214962944587946, 0.09287622739816512, 0.2500236411593627, 27280000000, 
-0.037399540290274286, 0.17948652553725328, 0.25045083830837955, 27285000000, 
-0.07441762033161713, 0.27076233093788815, 0.2504316002389637, 27290000000, 
-0.04198364719407262, 0.09713953099802135, 0.2505440491201769, 27295000000, 
-0.06632797831401885, 0.24588444436163098, 0.25068347936784013, 27300000000, 
-0.10033601853584981, 0.17122773061723479, 0.25039964959234956, 27305000000, 
0.009252981791479147, 0.08708254518070539, 0.25040413559801533, 27310000000, 
-0.08303256561155356, 0.265789515867207, 0.25032091878148643, 27315000000, 
-0.013622513595717166, 0.08939541944969964, 0.25041198502617995, 27320000000, 
-0.04080222362371622, 0.19390506605382388, 0.25066198667274536, 27326000000, 
-0.06054016669957269, 0.17961695162655644, 0.25023534004904047, 27331000000, 
-0.049370392421932266, 0.17821538743075022, 0.2503648729618294, 27336000000, 
-0.09853770771094549, 0.26402384442555604, 0.2501905899515233, 27341000000, 
-0.026859138405508475, 0.12021519164779947, 0.24999746162294503, 27346000000, 
-0.08065107316233948, 0.1985455285381215, 0.2501498484989962, 27351000000, 
-0.07269167979095165, 0.2749190501788889, 0.250083920574346, 27356000000, 
-0.026694242172680405, 0.07091399715115741, 0.25003104379566515, 27361000000, 
-0.055055808228370154, 0.208353898769209, 0.25038333315229755, 27366000000, 
-0.09978149258146801, 0.2569475137318543, 0.25018218433922956, 27371000000, 
-0.012480884035137167, 0.09613923789953116, 0.2500913599224494, 27376000000, 
-0.0805316312826238, 0.14010200523672306, 0.2505281702119576, 27381000000, 
-0.08893996252637391, 0.28331113624341664, 0.25011870165039035, 27386000000, 
-0.03426448778279953, 0.07120663874032694, 0.2505583401467523, 27391000000, 
-0.05325107703186757, 0.16910202522503356, 0.25030933242363124, 27396000000, 
-0.0542504928697659, 0.20084571346019248, 0.2503629274590389, 27401000000, 
-0.05923766485629812, 0.1727051948408955, 0.2506080851908654, 27406000000, 
-0.0806826232583497, 0.2511396310137134, 0.2500047210552873, 27411000000, 
-0.05799700724308716, 0.057288591591143634, 0.2502818652503062, 27416000000, 
-0.03424694520859552, 0.1832062870878594, 0.25083936929784884, 27421000000, 
-0.06290770116421707, 0.1830487235446169, 0.25064699380277194, 27426000000, 
-0.05373227891407279, 0.1662034682417973, 0.2514856557847502, 27431000000, 
-0.09666404826821914, 0.2822497000697056, 0.2510281979038893, 27436000000, 
-0.040391660324822366, 0.04373224510111896, 0.2515384215081072, 27441000000, 
-0.04015662779969695, 0.2094363583204269, 0.2513933226743842, 27446000000, 
-0.1302894605962459, 0.3120515769528449, 0.25162284510674304, 27451000000, 
0.0007777241336894766, 0.045684803543598496, 0.2520727410253759, 27456000000, 
-0.07177009782962537, 0.23999104696532786, 0.25216362369662065, 27461000000, 
-0.032950277630217725, 0.036924528481016114, 0.25195379352707137, 27466000000, 
-0.06588426507525205, 0.1984343739420377, 0.25241125395340147, 27471000000, 
-0.08467895277907818, 0.25372672622039366, 0.2517199981980602, 27476000000, 
0.004554647581620629, 0.07350006909266316, 0.2518803858915024, 27481000000, 
-0.05234361014314378, 0.1920814678794384, 0.25180383280505, 27486000000, 
-0.09760644458929164, 0.2909136099531571, 0.2510372207740581, 27491000000, 
-0.031487433698473004, 0.08893210910975546, 0.25094850160401844, 27496000000, 
-0.06882755938491578, 0.1849336704356592, 0.250013393352307, 27501000000, 
-0.11101714421973051, 0.28538992808506575, 0.24971609283176996, 27506000000, 
0.0010443581622714831, 0.09724854563158866, 0.24976442933249915, 27511000000, 
-0.13057982367849652, 0.24278043340354233, 0.24976960409646948, 27516000000, 
-0.03125694925553342, 0.059164867724358576, 0.24890801294549156, 27521000000, 
-0.05218246426322319, 0.18816652652730134, 0.2495845840876853, 27526000000, 
-0.07418620056083243, 0.27749384209017924, 0.24956398566514476, 27531000000, 
0.006813735035330094, 0.03141515943009439, 0.24898624091771931, 27536000000, 
-0.08361790231741228, 0.17867618072128555, 0.2496432914576314, 27541000000, 
-0.100981116571122, 0.2570102351753637, 0.24953248136527348, 27546000000, 
-0.03558315133331924, 0.07777685355520823, 0.24954405838881902, 27551000000, 
-0.05666915866633218, 0.17554435210530306, 0.25009048961996194, 27556000000, 
-0.08926626766057176, 0.25806097631040803, 0.24973943585015376, 27561000000, 
-0.014575706647237738, 0.07233246724099456, 0.24999395817119327, 27566000000, 
-0.08749403523517323, 0.3002388473488923, 0.25039582018079504, 27571000000, 
-0.030203201240770007, 0.12578484383521338, 0.2505507518996134, 27576000000, 
-0.07462557980728914, 0.17177122190216013, 0.25079238909272616, 27581000000, 
-0.093285906712967, 0.27879298265047797, 0.250939803029841, 27586000000, 
-0.032585950731958746, 0.04936303662016324, 0.2506015384603104, 27591000000, 
-0.03783621617045057, 0.16048176316425267, 0.2509052946080792, 27596000000, 
-0.10333737739891175, 0.24401564092172884, 0.2505985191545968, 27601000000, 
-0.026829909146190024, 0.05584009085201831, 0.25061214422146516, 27606000000, 
-0.07791328531645757, 0.1767980018804394, 0.25063339856380706, 27611000000, 
-0.10082351258686129, 0.266888060839047, 0.25029258269019794, 27616000000, 
-0.0224166488071601, 0.04917041526612749, 0.2503672820823472, 27621000000, 
-0.11270963368441775, 0.2803115810109827, 0.2506699655796382, 27626000000, 
0.007485425782172421, 0.09060440130053965, 0.2502371099130306, 27631000000, 
-0.06378753588459798, 0.20048067568290692, 0.2508290661933893, 27636000000, 
-0.1317387891527147, 0.3060083976090728, 0.2501518221689404, 27641000000, 
0.022787243437922048, 0.05550756430378564, 0.24969981988059892, 27646000000, 
-0.04429149522421332, 0.1898133255305494, 0.2500780838760217, 27651000000, 
-0.11092706122141888, 0.30385233966570807, 0.24948798433565497, 27656000000, 
0.01767823825749959, 0.07073669120688389, 0.2501718836475725, 27661000000, 
-0.022469751427021303, 0.17255859199151713, 0.2505000371943537, 27666000000, 
-0.08814100618768234, 0.2933777120927749, 0.24986655893046214, 27671000000, 
-0.008314872945850552, 0.08001044076995023, 0.2501648840778518, 27676000000, 
-0.07469390166688561, 0.2050059096058961, 0.2506511752528379, 27681000000, 
-0.029172644990669735, 0.16905174896782105, 0.2503040417070513, 27686000000, 
-0.07299614651992092, 0.15247249441686378, 0.2504075130777965, 27691000000, 
-0.08279476562288704, 0.33534769713168555, 0.2503194749216914, 27696000000, 
0.0014072394127437014, 0.03321288891115591, 0.2506826465778385, 27701000000, 
-0.05580290421754526, 0.18169066363730013, 0.25060177473881123, 27706000000, 
-0.09497549494501188, 0.267701906208538, 0.2501710265777226, 27711000000, 
-0.016863269297353652, 0.05198522112364621, 0.2505776457994117, 27716000000, 
-0.06282054703301554, 0.18693213091687466, 0.25044588309058097, 27721000000, 
-0.0773184614298952, 0.15015599971133312, 0.25017949162685227, 27726000000, 
-0.039981088231721924, 0.15751942487671794, 0.2502673541628049, 27731000000, 
-0.031994878764551024, 0.22005331124171434, 0.2506795779327753, 27736000000, 
-0.07422599858180132, 0.2656215477254186, 0.2501409834991208, 27741000000, 
0.012683131538439675, 0.052188320021244065, 0.2503422106931065, 27746000000, 
-0.06637698842955768, 0.1914703814892599, 0.2506302463527395, 27751000000, 
-0.06888985791755155, 0.19953502667760742, 0.2503925906847918, 27756000000, 
-0.05067144099987655, 0.17446267132209456, 0.2512216757048435, 27761000000, 
-0.10765165339294057, 0.32865801276190854, 0.25058187988674535, 27766000000, 
0.0036738896688439703, 0.05312110266143612, 0.25092964559950764, 27771000000, 
-0.06394769674197809, 0.18511650980420283, 0.25091819548612815, 27776000000, 
-0.10036855985083624, 0.27748442733254747, 0.2502344819047571, 27781000000, 
0.011841934525068272, 0.06340659583389943, 0.25064951577893696, 27786000000, 
-0.11408237420354814, 0.27042229138721363, 0.2507113053565065, 27791000000, 
-0.002163012489982438, 0.07578675592021644, 0.2500344707101639, 27796000000, 
-0.06370743882348967, 0.20171925691631556, 0.2507031146040581, 27802000000, 
-0.08480501137372637, 0.3091034117947726, 0.25004623262749337, 27807000000, 
-0.026924094302036267, 0.09596248955544133, 0.25027738626085055, 27812000000, 
-0.13102291424287463, 0.2933496680599992, 0.249993458993998, 27817000000, 
0.0026969710858988846, 0.08908646043174145, 0.2498585434511755, 27822000000, 
-0.07084219660301738, 0.16892437730154505, 0.24982324114539825, 27827000000, 
-0.11563102508373126, 0.28126162574983515, 0.25013280063978366, 27832000000, 
0.021293004907849362, 0.0436779929753443, 0.2498962478441198, 27837000000, 
-0.08529191416383337, 0.1979299574021456, 0.2496315646215767, 27842000000, 
-0.09008733564752117, 0.283291980716453, 0.24940853667055743, 27847000000, 
0.014305305564916024, 0.04094169624913264, 0.2498200449620324, 27852000000, 
-0.0951858875746736, 0.19323682912087325, 0.2502585035360907, 27857000000, 
-0.08919768636480724, 0.2775206197375319, 0.2502315820619755, 27862000000, 
0.023623521637937968, 0.03916956544148808, 0.2502837411399323, 27867000000, 
-0.06459675303247059, 0.179937596727256, 0.2503217840205978, 27872000000, 
-0.09035015535049573, 0.28222061177924795, 0.24997920772944504, 27877000000, 
-0.026316107407081856, 0.07809050174226843, 0.2502021185859807, 27882000000, 
-0.10258340891576233, 0.2772563153998599, 0.2503144344692069, 27887000000, 
-0.0309222391411263, 0.06371968993523008, 0.2501589398937008, 27892000000, 
-0.012057902551287358, 0.13415283528962124, 0.2506904372099819, 27897000000, 
-0.06239897172084521, 0.29108732264260156, 0.2499215975250259, 27902000000, 
0.006026394453310747, 0.047100685933952606, 0.2505068136360824, 27907000000, 
-0.07382798066959534, 0.20543901222789646, 0.25066718077837563, 27912000000, 
-0.1024210879432313, 0.26434609878771187, 0.24978311018758106, 27917000000, 
0.00346570477725832, 0.051920392853634104, 0.25008605566287045, 27922000000, 
-0.10093012484552079, 0.28049664419287024, 0.2503025337367051, 27927000000, 
-0.015210843559716563, 0.0657319500547772, 0.25015537108605707, 27932000000, 
-0.05661878093379, 0.19602578249378438, 0.24993947083856324, 27937000000, 
-0.11023719435671503, 0.25808995822779196, 0.24968904865483227, 27942000000, 
-0.01487216153380896, 0.06302489483177177, 0.25014770572341344, 27947000000, 
-0.085819921416219, 0.19283196902686794, 0.25035820796212094, 27952000000, 
-0.13217172236916652, 0.2873621864289564, 0.2501651652852282, 27957000000, 
-0.03346913615277719, 0.08083340182875731, 0.25028403810378996, 27962000000, 
-0.1528374398348156, 0.29376247697021146, 0.2500968864843716, 27967000000, 
-0.04411980053276038, 0.09635902468322967, 0.25042482445154457, 27972000000, 
-0.07948980153613465, 0.17424963260177231, 0.25039423279843315, 27977000000, 
-0.12852782198284285, 0.29475212802786754, 0.2504426466534052, 27982000000, 
0.03609700527685717, 0.05294722039941743, 0.2505169266471008, 27987000000, 
-0.0506480035602517, 0.1656868424925755, 0.2504444903908014, 27992000000, 
-0.10119441972808312, 0.27469191004139604, 0.2505513702903697, 27997000000, 
-0.010826033295020243, 0.12287129338748431, 0.2504473983817123, 28004000000, 
-0.10654304619257438, 0.2953656530848066, 0.2506517222197204, 28009000000, 
-0.0007083003537531121, 0.08808058622808615, 0.25047290761834573, 28014000000, 
-0.07802135179477306, 0.16644282865526616, 0.2504248106319165, 28019000000, 
-0.10094749241821009, 0.2793745008067643, 0.2500562225895055, 28024000000, 
-0.022662156655322754, 0.03842936459492338, 0.25060743695095067, 28029000000, 
-0.11399926067079155, 0.2888482016196629, 0.2503467769021279, 28034000000, 
-0.01972363670163561, 0.06853374101845182, 0.2501909457739241, 28039000000, 
-0.04593916169665724, 0.20291529879606812, 0.2504012147874658, 28044000000, 
-0.10286494090469542, 0.30922988869706, 0.25048645497216687, 28049000000, 
0.042096827608054666, 0.03895285705753988, 0.2510573620262998, 28054000000, 
-0.07727370786863108, 0.1768393915360119, 0.25108411269590986, 28059000000, 
-0.15058421096338123, 0.3313904467029357, 0.2505834145538065, 28064000000, 
0.031347813250847636, 0.03426218685823515, 0.25096632810741193, 28069000000, 
-0.10810734698773454, 0.3141279505881084, 0.2511531188093493, 28074000000, 
0.016840043593154927, 0.07979585683169982, 0.25123901291105266, 28079000000, 
-0.05684079344806651, 0.18519193784405805, 0.2513201966944975, 28084000000, 
-0.10765568100214308, 0.27008196580528315, 0.2507804639610865, 28089000000, 
-0.010577060322707312, 0.06020739630733478, 0.2506873381855645, 28094000000, 
-0.09946435250941148, 0.2821314966956581, 0.2516069744536145, 28099000000, 
-0.014290271033265812, 0.060330959131113096, 0.25050156420134084, 28104000000, 
-0.0770200567672709, 0.18519142244663156, 0.25087943342352537, 28109000000, 
-0.11819085963477932, 0.29402638304309425, 0.25017153169082873, 28114000000, 
0.023172978410311375, 0.018621801469568294, 0.2498681349114622, 28119000000, 
-0.07881774977793787, 0.21974650429326395, 0.2502386642792012, 28124000000, 
-0.040209423805559794, 0.2681395952955316, 0.24956751952652692, 28129000000, 
0.022536955263387698, 0.056079917077647104, 0.24985612278723582, 28134000000, 
-0.03811677580826656, 0.16752036772809417, 0.24987541434759827, 28139000000, 
-0.11819108508016583, 0.26476680214125053, 0.24932483159026791, 28144000000, 
-0.028446106258622504, 0.07520382707739534, 0.24952946782090454, 28149000000, 
-0.1359500508198503, 0.2859067182600987, 0.2500033842861576, 28154000000, 
-0.0017596105516237475, 0.08592505692983014, 0.24937059905067685, 28159000000, 
-0.07949044883258714, 0.1830808907574453, 0.2500241724100112, 28164000000, 
-0.12419003201409473, 0.30034583290773587, 0.24980613552226175, 28169000000, 
0.007716652080805889, 0.024687044884829184, 0.2496454610359919, 28174000000, 
-0.06986583744924357, 0.17744195092128665, 0.2507795947077956, 28180000000, 
-0.13246933164458397, 0.29561404409402614, 0.2502972691057447, 28185000000, 
-0.02374608284192946, 0.09487366877927621, 0.25089057122918773, 28191000000, 
-0.1065691566357143, 0.30157189302500054, 0.25082490565613674, 28196000000, 
0.052707553036516974, 0.005104470163481554, 0.25019559177329453, 28201000000, 
-0.04502862218774642, 0.21036263125047355, 0.25043447808766267, 28206000000, 
-0.14649695798199044, 0.27229939186908436, 0.25034601188718675, 28211000000, 
0.02325121575280397, 0.056691368336347955, 0.2503790079224574, 28216000000, 
-0.09947985813776941, 0.27611169305738736, 0.25029137100800375, 28221000000, 
0.0080843636066999, 0.06786863215938899, 0.25011187071108126, 28226000000, 
-0.0568316310293241, 0.12844854197818945, 0.2505918196945075, 28231000000, 
-0.12302428839109414, 0.3367636702811745, 0.24999508552297234, 28236000000, 
-0.018435281901460675, 0.023984295422746806, 0.2500931521915109, 28241000000, 
-0.06680977880461633, 0.20743291290112936, 0.2501967093557945, 28246000000, 
-0.09641147560066564, 0.2887644232025521, 0.2502482620189932, 28251000000, 
0.01189727383926107, 0.022728761250667164, 0.2503490815621526, 28256000000, 
-0.08174234085494297, 0.29238495047900237, 0.250608570753738, 28261000000, 
-0.06391781901095164, 0.191212742618837, 0.25011224072210914, 28266000000, 
-0.022655399090038945, 0.05112213035071998, 0.2500279862332292, 28271000000, 
-0.0982170419195976, 0.2979487173866841, 0.25043524561203384, 28276000000, 
-0.0005046739195236011, 0.06492225444904279, 0.24982694759701993, 28281000000, 
-0.06155184379982957, 0.17598245320172257, 0.25036298044545485, 28286000000, 
-0.12031938045287384, 0.31014046764111464, 0.25016129388225883, 28291000000, 
-0.003943292878740852, 0.03639666374597555, 0.24998858939089974, 28296000000, 
-0.06325891086094805, 0.20853681438599272, 0.25051783273164735, 28301000000, 
-0.11745672404078668, 0.28028264279575976, 0.2501182779193096, 28306000000, 
-0.028046681411773577, 0.08173886605256571, 0.25020028850559656, 28312000000, 
-0.15474016132994692, 0.36719506777660105, 0.25034127590205735, 28317000000, 
